onset	duration	task_event	rt_in_ms	task_novelty	logic_rule	sensory_rule	motor_rule	performance	task_id	motor_response	stimulus1_color	stimulus1_orientation	stimulus1_pitch	stimulus1_continuity	stimulus2_color	stimulus2_orientation	stimulus2_pitch	stimulus2_continuity
0.0	3.9250000000000003	delay	n/a	n/a	n/a	n/a	n/a	n/a	n/a	n/a	n/a	n/a	n/a	n/a	n/a	n/a	n/a	n/a
3.9250000000000003	3.9250000000000003	encoding	n/a	Novel	*EITHER*	VERTICAL	RIGHT*MIDDLE	n/a	47.0	n/a	n/a	n/a	n/a	n/a	n/a	n/a	n/a	n/a
7.8500000000000005	3.925	delay	n/a	n/a	n/a	n/a	n/a	n/a	n/a	n/a	n/a	n/a	n/a	n/a	n/a	n/a	n/a	n/a
11.775	2.355	trial	3165.0	Novel	*EITHER*	VERTICAL	RIGHT*MIDDLE	Correct	47.0	right_index_finger	blue	horizontal	low	alarm	red	horizontal	high	alarm
14.13	1.57	ITI	n/a	n/a	n/a	n/a	n/a	n/a	n/a	n/a	n/a	n/a	n/a	n/a	n/a	n/a	n/a	n/a
15.700000000000001	2.355	trial	1645.0	Novel	*EITHER*	VERTICAL	RIGHT*MIDDLE	Correct	47.0	right_index_finger	red	horizontal	high	alarm	red	horizontal	high	alarm
18.055	1.57	ITI	n/a	n/a	n/a	n/a	n/a	n/a	n/a	n/a	n/a	n/a	n/a	n/a	n/a	n/a	n/a	n/a
19.625	2.355	trial	700.0	Novel	*EITHER*	VERTICAL	RIGHT*MIDDLE	Correct	47.0	right_middle_finger	red	vertical	high	alarm	red	vertical	low	constant
21.98	10.205	delay	n/a	n/a	n/a	n/a	n/a	n/a	n/a	n/a	n/a	n/a	n/a	n/a	n/a	n/a	n/a	n/a
32.185	3.9250000000000003	encoding	n/a	Novel	NOT*BOTH	HI*PITCH	LEFT*MIDDLE*	n/a	17.0	n/a	n/a	n/a	n/a	n/a	n/a	n/a	n/a	n/a
36.11	3.14	delay	n/a	n/a	n/a	n/a	n/a	n/a	n/a	n/a	n/a	n/a	n/a	n/a	n/a	n/a	n/a	n/a
39.25	2.355	trial	1981.0	Novel	NOT*BOTH	HI*PITCH	LEFT*MIDDLE*	Correct	17.0	left_index_finger	red	horizontal	high	constant	red	horizontal	high	constant
41.605	1.57	ITI	n/a	n/a	n/a	n/a	n/a	n/a	n/a	n/a	n/a	n/a	n/a	n/a	n/a	n/a	n/a	n/a
43.175	2.355	trial	2006.0	Novel	NOT*BOTH	HI*PITCH	LEFT*MIDDLE*	Correct	17.0	left_middle_finger	red	horizontal	low	constant	blue	horizontal	low	constant
45.529999999999994	1.57	ITI	n/a	n/a	n/a	n/a	n/a	n/a	n/a	n/a	n/a	n/a	n/a	n/a	n/a	n/a	n/a	n/a
47.099999999999994	2.355	trial	1869.0	Novel	NOT*BOTH	HI*PITCH	LEFT*MIDDLE*	Correct	17.0	left_index_finger	blue	vertical	high	constant	red	vertical	high	alarm
49.45499999999999	10.99	delay	n/a	n/a	n/a	n/a	n/a	n/a	n/a	n/a	n/a	n/a	n/a	n/a	n/a	n/a	n/a	n/a
60.44499999999999	3.9250000000000003	encoding	n/a	Novel	*EITHER*	HI*PITCH	LEFT*MIDDLE*	n/a	33.0	n/a	n/a	n/a	n/a	n/a	n/a	n/a	n/a	n/a
64.36999999999999	2.355	delay	n/a	n/a	n/a	n/a	n/a	n/a	n/a	n/a	n/a	n/a	n/a	n/a	n/a	n/a	n/a	n/a
66.725	2.355	trial	3108.0	Novel	*EITHER*	HI*PITCH	LEFT*MIDDLE*	Correct	33.0	left_middle_finger	blue	vertical	high	alarm	red	vertical	high	alarm
69.08	1.57	ITI	n/a	n/a	n/a	n/a	n/a	n/a	n/a	n/a	n/a	n/a	n/a	n/a	n/a	n/a	n/a	n/a
70.64999999999999	2.355	trial	2564.0	Novel	*EITHER*	HI*PITCH	LEFT*MIDDLE*	Correct	33.0	left_middle_finger	red	horizontal	high	constant	blue	vertical	low	alarm
73.005	1.57	ITI	n/a	n/a	n/a	n/a	n/a	n/a	n/a	n/a	n/a	n/a	n/a	n/a	n/a	n/a	n/a	n/a
74.57499999999999	2.355	trial	678.0	Novel	*EITHER*	HI*PITCH	LEFT*MIDDLE*	Correct	33.0	left_middle_finger	red	horizontal	high	alarm	blue	vertical	high	alarm
76.92999999999999	11.775	delay	n/a	n/a	n/a	n/a	n/a	n/a	n/a	n/a	n/a	n/a	n/a	n/a	n/a	n/a	n/a	n/a
88.705	3.9250000000000003	encoding	n/a	Novel	**BOTH**	CONSTANT	RIGHT*MIDDLE	n/a	7.0	n/a	n/a	n/a	n/a	n/a	n/a	n/a	n/a	n/a
92.63	4.71	delay	n/a	n/a	n/a	n/a	n/a	n/a	n/a	n/a	n/a	n/a	n/a	n/a	n/a	n/a	n/a	n/a
97.33999999999999	2.355	trial	2767.0	Novel	**BOTH**	CONSTANT	RIGHT*MIDDLE	Correct	7.0	right_middle_finger	blue	vertical	high	constant	red	vertical	high	constant
99.695	1.57	ITI	n/a	n/a	n/a	n/a	n/a	n/a	n/a	n/a	n/a	n/a	n/a	n/a	n/a	n/a	n/a	n/a
101.26499999999999	2.355	trial	2533.0	Novel	**BOTH**	CONSTANT	RIGHT*MIDDLE	Correct	7.0	right_index_finger	blue	horizontal	low	alarm	blue	horizontal	low	alarm
103.61999999999999	1.57	ITI	n/a	n/a	n/a	n/a	n/a	n/a	n/a	n/a	n/a	n/a	n/a	n/a	n/a	n/a	n/a	n/a
105.18999999999998	2.355	trial	1671.0	Novel	**BOTH**	CONSTANT	RIGHT*MIDDLE	Correct	7.0	right_middle_finger	red	horizontal	low	constant	red	horizontal	low	constant
107.54499999999999	9.42	delay	n/a	n/a	n/a	n/a	n/a	n/a	n/a	n/a	n/a	n/a	n/a	n/a	n/a	n/a	n/a	n/a
116.96499999999999	3.9250000000000003	encoding	n/a	Novel	**BOTH**	HI*PITCH	LEFT*MIDDLE*	n/a	1.0	n/a	n/a	n/a	n/a	n/a	n/a	n/a	n/a	n/a
120.88999999999999	3.14	delay	n/a	n/a	n/a	n/a	n/a	n/a	n/a	n/a	n/a	n/a	n/a	n/a	n/a	n/a	n/a	n/a
124.02999999999999	2.355	trial	3185.0	Novel	**BOTH**	HI*PITCH	LEFT*MIDDLE*	Correct	1.0	left_middle_finger	blue	horizontal	high	constant	blue	horizontal	high	constant
126.38499999999999	1.57	ITI	n/a	n/a	n/a	n/a	n/a	n/a	n/a	n/a	n/a	n/a	n/a	n/a	n/a	n/a	n/a	n/a
127.95499999999998	2.355	trial	1572.0	Novel	**BOTH**	HI*PITCH	LEFT*MIDDLE*	Correct	1.0	left_middle_finger	red	vertical	high	constant	blue	horizontal	high	constant
130.30999999999997	1.57	ITI	n/a	n/a	n/a	n/a	n/a	n/a	n/a	n/a	n/a	n/a	n/a	n/a	n/a	n/a	n/a	n/a
131.87999999999997	2.355	trial	1735.0	Novel	**BOTH**	HI*PITCH	LEFT*MIDDLE*	Wrong	1.0	left_middle_finger	blue	horizontal	low	constant	red	vertical	high	alarm
134.23499999999996	10.99	delay	n/a	n/a	n/a	n/a	n/a	n/a	n/a	n/a	n/a	n/a	n/a	n/a	n/a	n/a	n/a	n/a
145.22499999999997	3.9250000000000003	encoding	n/a	Novel	NEITHER*	CONSTANT	RIGHT*INDEX*	n/a	56.0	n/a	n/a	n/a	n/a	n/a	n/a	n/a	n/a	n/a
149.14999999999998	5.495	delay	n/a	n/a	n/a	n/a	n/a	n/a	n/a	n/a	n/a	n/a	n/a	n/a	n/a	n/a	n/a	n/a
154.64499999999998	2.355	trial	2703.0	Novel	NEITHER*	CONSTANT	RIGHT*INDEX*	Correct	56.0	right_middle_finger	red	horizontal	high	constant	blue	horizontal	low	alarm
156.99999999999997	1.57	ITI	n/a	n/a	n/a	n/a	n/a	n/a	n/a	n/a	n/a	n/a	n/a	n/a	n/a	n/a	n/a	n/a
158.56999999999996	2.355	trial	1626.0	Novel	NEITHER*	CONSTANT	RIGHT*INDEX*	Wrong	56.0	right_middle_finger	blue	vertical	low	alarm	red	vertical	low	alarm
160.92499999999995	1.57	ITI	n/a	n/a	n/a	n/a	n/a	n/a	n/a	n/a	n/a	n/a	n/a	n/a	n/a	n/a	n/a	n/a
162.49499999999995	2.355	trial	0.0	Novel	NEITHER*	CONSTANT	RIGHT*INDEX*	No Response	56.0	no_response	blue	vertical	low	constant	blue	horizontal	low	alarm
164.84999999999994	8.635	delay	n/a	n/a	n/a	n/a	n/a	n/a	n/a	n/a	n/a	n/a	n/a	n/a	n/a	n/a	n/a	n/a
173.48499999999993	3.9250000000000003	encoding	n/a	Novel	**BOTH**	HI*PITCH	RIGHT*MIDDLE	n/a	3.0	n/a	n/a	n/a	n/a	n/a	n/a	n/a	n/a	n/a
177.40999999999994	5.495	delay	n/a	n/a	n/a	n/a	n/a	n/a	n/a	n/a	n/a	n/a	n/a	n/a	n/a	n/a	n/a	n/a
182.90499999999994	2.355	trial	2683.0	Novel	**BOTH**	HI*PITCH	RIGHT*MIDDLE	Correct	3.0	right_middle_finger	red	vertical	high	constant	red	horizontal	high	constant
185.25999999999993	1.57	ITI	n/a	n/a	n/a	n/a	n/a	n/a	n/a	n/a	n/a	n/a	n/a	n/a	n/a	n/a	n/a	n/a
186.82999999999993	2.355	trial	2782.0	Novel	**BOTH**	HI*PITCH	RIGHT*MIDDLE	Correct	3.0	right_index_finger	red	vertical	low	alarm	blue	horizontal	high	constant
189.18499999999992	1.57	ITI	n/a	n/a	n/a	n/a	n/a	n/a	n/a	n/a	n/a	n/a	n/a	n/a	n/a	n/a	n/a	n/a
190.7549999999999	2.355	trial	943.0	Novel	**BOTH**	HI*PITCH	RIGHT*MIDDLE	Correct	3.0	right_index_finger	red	horizontal	low	alarm	red	vertical	high	constant
193.1099999999999	8.635	delay	n/a	n/a	n/a	n/a	n/a	n/a	n/a	n/a	n/a	n/a	n/a	n/a	n/a	n/a	n/a	n/a
201.7449999999999	3.9250000000000003	encoding	n/a	Novel	*EITHER*	**RED***	LEFT*MIDDLE*	n/a	41.0	n/a	n/a	n/a	n/a	n/a	n/a	n/a	n/a	n/a
205.6699999999999	2.355	delay	n/a	n/a	n/a	n/a	n/a	n/a	n/a	n/a	n/a	n/a	n/a	n/a	n/a	n/a	n/a	n/a
208.0249999999999	2.355	trial	999.0	Novel	*EITHER*	**RED***	LEFT*MIDDLE*	Correct	41.0	left_middle_finger	red	horizontal	high	constant	red	horizontal	high	constant
210.37999999999988	1.57	ITI	n/a	n/a	n/a	n/a	n/a	n/a	n/a	n/a	n/a	n/a	n/a	n/a	n/a	n/a	n/a	n/a
211.94999999999987	2.355	trial	1835.0	Novel	*EITHER*	**RED***	LEFT*MIDDLE*	Correct	41.0	left_middle_finger	red	horizontal	low	alarm	red	horizontal	low	alarm
214.30499999999986	1.57	ITI	n/a	n/a	n/a	n/a	n/a	n/a	n/a	n/a	n/a	n/a	n/a	n/a	n/a	n/a	n/a	n/a
215.87499999999986	2.355	trial	1615.0	Novel	*EITHER*	**RED***	LEFT*MIDDLE*	Correct	41.0	left_middle_finger	blue	horizontal	high	alarm	red	horizontal	high	alarm
218.22999999999985	11.775	delay	n/a	n/a	n/a	n/a	n/a	n/a	n/a	n/a	n/a	n/a	n/a	n/a	n/a	n/a	n/a	n/a
230.00499999999985	3.9250000000000003	encoding	n/a	Novel	NEITHER*	VERTICAL	*LEFT*INDEX*	n/a	62.0	n/a	n/a	n/a	n/a	n/a	n/a	n/a	n/a	n/a
233.92999999999986	4.71	delay	n/a	n/a	n/a	n/a	n/a	n/a	n/a	n/a	n/a	n/a	n/a	n/a	n/a	n/a	n/a	n/a
238.63999999999987	2.355	trial	2886.0	Novel	NEITHER*	VERTICAL	*LEFT*INDEX*	Correct	62.0	left_index_finger	blue	horizontal	high	alarm	blue	horizontal	low	constant
240.99499999999986	1.57	ITI	n/a	n/a	n/a	n/a	n/a	n/a	n/a	n/a	n/a	n/a	n/a	n/a	n/a	n/a	n/a	n/a
242.56499999999986	2.355	trial	1305.0	Novel	NEITHER*	VERTICAL	*LEFT*INDEX*	Correct	62.0	left_middle_finger	red	vertical	low	constant	red	horizontal	high	alarm
244.91999999999985	1.57	ITI	n/a	n/a	n/a	n/a	n/a	n/a	n/a	n/a	n/a	n/a	n/a	n/a	n/a	n/a	n/a	n/a
246.48999999999984	2.355	trial	752.0	Novel	NEITHER*	VERTICAL	*LEFT*INDEX*	Correct	62.0	left_middle_finger	red	vertical	high	alarm	red	horizontal	low	constant
248.84499999999983	9.42	delay	n/a	n/a	n/a	n/a	n/a	n/a	n/a	n/a	n/a	n/a	n/a	n/a	n/a	n/a	n/a	n/a
258.2649999999998	3.9250000000000003	encoding	n/a	Novel	NOT*BOTH	**RED***	RIGHT*MIDDLE	n/a	27.0	n/a	n/a	n/a	n/a	n/a	n/a	n/a	n/a	n/a
262.1899999999998	2.355	delay	n/a	n/a	n/a	n/a	n/a	n/a	n/a	n/a	n/a	n/a	n/a	n/a	n/a	n/a	n/a	n/a
264.54499999999985	2.355	trial	2423.0	Novel	NOT*BOTH	**RED***	RIGHT*MIDDLE	Correct	27.0	right_middle_finger	blue	horizontal	low	alarm	red	horizontal	high	constant
266.89999999999986	1.57	ITI	n/a	n/a	n/a	n/a	n/a	n/a	n/a	n/a	n/a	n/a	n/a	n/a	n/a	n/a	n/a	n/a
268.46999999999986	2.355	trial	1595.0	Novel	NOT*BOTH	**RED***	RIGHT*MIDDLE	Correct	27.0	right_index_finger	red	horizontal	low	constant	red	horizontal	high	constant
270.8249999999999	1.57	ITI	n/a	n/a	n/a	n/a	n/a	n/a	n/a	n/a	n/a	n/a	n/a	n/a	n/a	n/a	n/a	n/a
272.39499999999987	2.355	trial	2071.0	Novel	NOT*BOTH	**RED***	RIGHT*MIDDLE	Correct	27.0	right_index_finger	red	horizontal	low	constant	red	vertical	high	alarm
274.7499999999999	11.775	delay	n/a	n/a	n/a	n/a	n/a	n/a	n/a	n/a	n/a	n/a	n/a	n/a	n/a	n/a	n/a	n/a
286.52499999999986	3.9250000000000003	encoding	n/a	Novel	*EITHER*	VERTICAL	RIGHT*INDEX*	n/a	48.0	n/a	n/a	n/a	n/a	n/a	n/a	n/a	n/a	n/a
290.4499999999999	4.71	delay	n/a	n/a	n/a	n/a	n/a	n/a	n/a	n/a	n/a	n/a	n/a	n/a	n/a	n/a	n/a	n/a
295.15999999999985	2.355	trial	1813.0	Novel	*EITHER*	VERTICAL	RIGHT*INDEX*	Correct	48.0	right_middle_finger	red	horizontal	high	alarm	blue	horizontal	high	alarm
297.5149999999999	1.57	ITI	n/a	n/a	n/a	n/a	n/a	n/a	n/a	n/a	n/a	n/a	n/a	n/a	n/a	n/a	n/a	n/a
299.08499999999987	2.355	trial	777.0	Novel	*EITHER*	VERTICAL	RIGHT*INDEX*	Correct	48.0	right_index_finger	red	vertical	high	constant	red	vertical	high	constant
301.4399999999999	1.57	ITI	n/a	n/a	n/a	n/a	n/a	n/a	n/a	n/a	n/a	n/a	n/a	n/a	n/a	n/a	n/a	n/a
303.0099999999999	2.355	trial	1863.0	Novel	*EITHER*	VERTICAL	RIGHT*INDEX*	Correct	48.0	right_index_finger	red	vertical	high	alarm	blue	horizontal	low	alarm
305.3649999999999	9.42	delay	n/a	n/a	n/a	n/a	n/a	n/a	n/a	n/a	n/a	n/a	n/a	n/a	n/a	n/a	n/a	n/a
314.7849999999999	3.9250000000000003	encoding	n/a	Novel	NEITHER*	**RED***	RIGHT*MIDDLE	n/a	59.0	n/a	n/a	n/a	n/a	n/a	n/a	n/a	n/a	n/a
318.7099999999999	5.495	delay	n/a	n/a	n/a	n/a	n/a	n/a	n/a	n/a	n/a	n/a	n/a	n/a	n/a	n/a	n/a	n/a
324.2049999999999	2.355	trial	2158.0	Novel	NEITHER*	**RED***	RIGHT*MIDDLE	Wrong Hand	59.0	left_index_finger	blue	vertical	high	constant	red	vertical	high	constant
326.55999999999995	1.57	ITI	n/a	n/a	n/a	n/a	n/a	n/a	n/a	n/a	n/a	n/a	n/a	n/a	n/a	n/a	n/a	n/a
328.12999999999994	2.355	trial	3201.0	Novel	NEITHER*	**RED***	RIGHT*MIDDLE	Correct	59.0	right_index_finger	red	vertical	low	alarm	blue	vertical	low	alarm
330.48499999999996	1.57	ITI	n/a	n/a	n/a	n/a	n/a	n/a	n/a	n/a	n/a	n/a	n/a	n/a	n/a	n/a	n/a	n/a
332.05499999999995	2.355	trial	0.0	Novel	NEITHER*	**RED***	RIGHT*MIDDLE	No Response	59.0	no_response	red	vertical	low	constant	red	horizontal	low	alarm
334.40999999999997	8.635	delay	n/a	n/a	n/a	n/a	n/a	n/a	n/a	n/a	n/a	n/a	n/a	n/a	n/a	n/a	n/a	n/a
343.04499999999996	3.9250000000000003	encoding	n/a	Novel	**BOTH**	**RED***	*LEFT*INDEX*	n/a	10.0	n/a	n/a	n/a	n/a	n/a	n/a	n/a	n/a	n/a
346.96999999999997	1.57	delay	n/a	n/a	n/a	n/a	n/a	n/a	n/a	n/a	n/a	n/a	n/a	n/a	n/a	n/a	n/a	n/a
348.53999999999996	2.355	trial	2382.0	Novel	**BOTH**	**RED***	*LEFT*INDEX*	Correct	10.0	left_middle_finger	blue	horizontal	low	alarm	blue	vertical	high	alarm
350.895	1.57	ITI	n/a	n/a	n/a	n/a	n/a	n/a	n/a	n/a	n/a	n/a	n/a	n/a	n/a	n/a	n/a	n/a
352.465	2.355	trial	1775.0	Novel	**BOTH**	**RED***	*LEFT*INDEX*	Correct	10.0	left_index_finger	red	horizontal	low	constant	red	horizontal	high	alarm
354.82	1.57	ITI	n/a	n/a	n/a	n/a	n/a	n/a	n/a	n/a	n/a	n/a	n/a	n/a	n/a	n/a	n/a	n/a
356.39	2.355	trial	1624.0	Novel	**BOTH**	**RED***	*LEFT*INDEX*	Correct	10.0	left_index_finger	red	horizontal	low	alarm	red	horizontal	high	constant
358.745	12.56	delay	n/a	n/a	n/a	n/a	n/a	n/a	n/a	n/a	n/a	n/a	n/a	n/a	n/a	n/a	n/a	n/a
371.305	3.9250000000000003	encoding	n/a	Novel	**BOTH**	HI*PITCH	*LEFT*INDEX*	n/a	2.0	n/a	n/a	n/a	n/a	n/a	n/a	n/a	n/a	n/a
375.23	3.14	delay	n/a	n/a	n/a	n/a	n/a	n/a	n/a	n/a	n/a	n/a	n/a	n/a	n/a	n/a	n/a	n/a
378.37	2.355	trial	2545.0	Novel	**BOTH**	HI*PITCH	*LEFT*INDEX*	Correct	2.0	left_index_finger	blue	horizontal	high	constant	blue	vertical	high	constant
380.725	1.57	ITI	n/a	n/a	n/a	n/a	n/a	n/a	n/a	n/a	n/a	n/a	n/a	n/a	n/a	n/a	n/a	n/a
382.295	2.355	trial	1706.0	Novel	**BOTH**	HI*PITCH	*LEFT*INDEX*	Correct	2.0	left_middle_finger	blue	horizontal	high	alarm	blue	horizontal	low	constant
384.65000000000003	1.57	ITI	n/a	n/a	n/a	n/a	n/a	n/a	n/a	n/a	n/a	n/a	n/a	n/a	n/a	n/a	n/a	n/a
386.22	2.355	trial	1687.0	Novel	**BOTH**	HI*PITCH	*LEFT*INDEX*	Correct	2.0	left_middle_finger	red	horizontal	high	constant	blue	horizontal	low	alarm
388.57500000000005	10.99	delay	n/a	n/a	n/a	n/a	n/a	n/a	n/a	n/a	n/a	n/a	n/a	n/a	n/a	n/a	n/a	n/a
399.56500000000005	3.9250000000000003	encoding	n/a	Novel	NOT*BOTH	CONSTANT	RIGHT*MIDDLE	n/a	23.0	n/a	n/a	n/a	n/a	n/a	n/a	n/a	n/a	n/a
403.49000000000007	5.495	delay	n/a	n/a	n/a	n/a	n/a	n/a	n/a	n/a	n/a	n/a	n/a	n/a	n/a	n/a	n/a	n/a
408.98500000000007	2.355	trial	916.0	Novel	NOT*BOTH	CONSTANT	RIGHT*MIDDLE	Wrong	23.0	right_index_finger	blue	horizontal	low	alarm	red	horizontal	high	constant
411.3400000000001	1.57	ITI	n/a	n/a	n/a	n/a	n/a	n/a	n/a	n/a	n/a	n/a	n/a	n/a	n/a	n/a	n/a	n/a
412.9100000000001	2.355	trial	2179.0	Novel	NOT*BOTH	CONSTANT	RIGHT*MIDDLE	Wrong	23.0	right_middle_finger	red	vertical	high	constant	red	vertical	low	constant
415.2650000000001	1.57	ITI	n/a	n/a	n/a	n/a	n/a	n/a	n/a	n/a	n/a	n/a	n/a	n/a	n/a	n/a	n/a	n/a
416.8350000000001	2.355	trial	1447.0	Novel	NOT*BOTH	CONSTANT	RIGHT*MIDDLE	Correct	23.0	right_middle_finger	red	vertical	high	alarm	blue	vertical	high	constant
419.1900000000001	8.635	delay	n/a	n/a	n/a	n/a	n/a	n/a	n/a	n/a	n/a	n/a	n/a	n/a	n/a	n/a	n/a	n/a
427.8250000000001	3.9250000000000003	encoding	n/a	Novel	*EITHER*	VERTICAL	*LEFT*INDEX*	n/a	46.0	n/a	n/a	n/a	n/a	n/a	n/a	n/a	n/a	n/a
431.7500000000001	3.14	delay	n/a	n/a	n/a	n/a	n/a	n/a	n/a	n/a	n/a	n/a	n/a	n/a	n/a	n/a	n/a	n/a
434.8900000000001	2.355	trial	1058.0	Novel	*EITHER*	VERTICAL	*LEFT*INDEX*	Correct	46.0	left_index_finger	blue	vertical	high	constant	red	vertical	high	constant
437.2450000000001	1.57	ITI	n/a	n/a	n/a	n/a	n/a	n/a	n/a	n/a	n/a	n/a	n/a	n/a	n/a	n/a	n/a	n/a
438.8150000000001	2.355	trial	1608.0	Novel	*EITHER*	VERTICAL	*LEFT*INDEX*	Correct	46.0	left_middle_finger	red	horizontal	high	constant	red	horizontal	high	constant
441.17000000000013	1.57	ITI	n/a	n/a	n/a	n/a	n/a	n/a	n/a	n/a	n/a	n/a	n/a	n/a	n/a	n/a	n/a	n/a
442.7400000000001	2.355	trial	1939.0	Novel	*EITHER*	VERTICAL	*LEFT*INDEX*	Correct	46.0	left_middle_finger	blue	horizontal	low	constant	blue	horizontal	low	constant
445.09500000000014	10.99	delay	n/a	n/a	n/a	n/a	n/a	n/a	n/a	n/a	n/a	n/a	n/a	n/a	n/a	n/a	n/a	n/a
