onset	duration	task_event	rt_in_ms	task_novelty	logic_rule	sensory_rule	motor_rule	performance	task_id	motor_response	stimulus1_color	stimulus1_orientation	stimulus1_pitch	stimulus1_continuity	stimulus2_color	stimulus2_orientation	stimulus2_pitch	stimulus2_continuity
0.0	3.9250000000000003	delay	n/a	n/a	n/a	n/a	n/a	n/a	n/a	n/a	n/a	n/a	n/a	n/a	n/a	n/a	n/a	n/a
3.9250000000000003	3.9250000000000003	encoding	n/a	Prac	NOT*BOTH	**RED***	RIGHT*MIDDLE	n/a	27.0	n/a	n/a	n/a	n/a	n/a	n/a	n/a	n/a	n/a
7.8500000000000005	3.14	delay	n/a	n/a	n/a	n/a	n/a	n/a	n/a	n/a	n/a	n/a	n/a	n/a	n/a	n/a	n/a	n/a
10.99	2.355	trial	2096.0	Prac	NOT*BOTH	**RED***	RIGHT*MIDDLE	Correct	27.0	right_index_finger	red	horizontal	high	alarm	red	horizontal	high	constant
13.345	1.57	ITI	n/a	n/a	n/a	n/a	n/a	n/a	n/a	n/a	n/a	n/a	n/a	n/a	n/a	n/a	n/a	n/a
14.915000000000001	2.355	trial	1791.0	Prac	NOT*BOTH	**RED***	RIGHT*MIDDLE	Correct	27.0	right_index_finger	red	horizontal	high	alarm	red	horizontal	low	constant
17.27	1.57	ITI	n/a	n/a	n/a	n/a	n/a	n/a	n/a	n/a	n/a	n/a	n/a	n/a	n/a	n/a	n/a	n/a
18.84	2.355	trial	1741.0	Prac	NOT*BOTH	**RED***	RIGHT*MIDDLE	Correct	27.0	right_index_finger	red	horizontal	low	alarm	red	horizontal	high	constant
21.195	10.99	delay	n/a	n/a	n/a	n/a	n/a	n/a	n/a	n/a	n/a	n/a	n/a	n/a	n/a	n/a	n/a	n/a
32.185	3.9250000000000003	encoding	n/a	Novel	NEITHER*	VERTICAL	LEFT*MIDDLE*	n/a	61.0	n/a	n/a	n/a	n/a	n/a	n/a	n/a	n/a	n/a
36.11	3.925	delay	n/a	n/a	n/a	n/a	n/a	n/a	n/a	n/a	n/a	n/a	n/a	n/a	n/a	n/a	n/a	n/a
40.035	2.355	trial	2499.0	Novel	NEITHER*	VERTICAL	LEFT*MIDDLE*	Correct	61.0	left_middle_finger	red	horizontal	low	constant	blue	horizontal	low	constant
42.38999999999999	1.57	ITI	n/a	n/a	n/a	n/a	n/a	n/a	n/a	n/a	n/a	n/a	n/a	n/a	n/a	n/a	n/a	n/a
43.959999999999994	2.355	trial	2225.0	Novel	NEITHER*	VERTICAL	LEFT*MIDDLE*	Correct	61.0	left_middle_finger	red	horizontal	low	constant	blue	horizontal	high	constant
46.31499999999999	1.57	ITI	n/a	n/a	n/a	n/a	n/a	n/a	n/a	n/a	n/a	n/a	n/a	n/a	n/a	n/a	n/a	n/a
47.88499999999999	2.355	trial	1700.0	Novel	NEITHER*	VERTICAL	LEFT*MIDDLE*	Correct	61.0	left_index_finger	red	vertical	high	alarm	red	vertical	high	constant
50.23999999999999	10.205	delay	n/a	n/a	n/a	n/a	n/a	n/a	n/a	n/a	n/a	n/a	n/a	n/a	n/a	n/a	n/a	n/a
60.444999999999986	3.9250000000000003	encoding	n/a	Novel	NEITHER*	HI*PITCH	RIGHT*MIDDLE	n/a	51.0	n/a	n/a	n/a	n/a	n/a	n/a	n/a	n/a	n/a
64.36999999999999	5.495	delay	n/a	n/a	n/a	n/a	n/a	n/a	n/a	n/a	n/a	n/a	n/a	n/a	n/a	n/a	n/a	n/a
69.865	2.355	trial	2502.0	Novel	NEITHER*	HI*PITCH	RIGHT*MIDDLE	Correct	51.0	right_index_finger	red	horizontal	high	alarm	blue	horizontal	high	constant
72.22	1.57	ITI	n/a	n/a	n/a	n/a	n/a	n/a	n/a	n/a	n/a	n/a	n/a	n/a	n/a	n/a	n/a	n/a
73.78999999999999	2.355	trial	1705.0	Novel	NEITHER*	HI*PITCH	RIGHT*MIDDLE	Correct	51.0	right_middle_finger	red	vertical	low	constant	blue	horizontal	low	constant
76.145	1.57	ITI	n/a	n/a	n/a	n/a	n/a	n/a	n/a	n/a	n/a	n/a	n/a	n/a	n/a	n/a	n/a	n/a
77.71499999999999	2.355	trial	2073.0	Novel	NEITHER*	HI*PITCH	RIGHT*MIDDLE	Correct	51.0	right_middle_finger	red	horizontal	low	constant	blue	horizontal	low	alarm
80.07	8.635	delay	n/a	n/a	n/a	n/a	n/a	n/a	n/a	n/a	n/a	n/a	n/a	n/a	n/a	n/a	n/a	n/a
88.705	3.9250000000000003	encoding	n/a	Novel	NOT*BOTH	**RED***	LEFT*MIDDLE*	n/a	25.0	n/a	n/a	n/a	n/a	n/a	n/a	n/a	n/a	n/a
92.63	2.355	delay	n/a	n/a	n/a	n/a	n/a	n/a	n/a	n/a	n/a	n/a	n/a	n/a	n/a	n/a	n/a	n/a
94.985	2.355	trial	2073.0	Novel	NOT*BOTH	**RED***	LEFT*MIDDLE*	Correct	25.0	left_middle_finger	blue	horizontal	high	alarm	blue	vertical	high	alarm
97.34	1.57	ITI	n/a	n/a	n/a	n/a	n/a	n/a	n/a	n/a	n/a	n/a	n/a	n/a	n/a	n/a	n/a	n/a
98.91	2.355	trial	1647.0	Novel	NOT*BOTH	**RED***	LEFT*MIDDLE*	Correct	25.0	left_middle_finger	blue	horizontal	high	alarm	blue	vertical	low	constant
101.265	1.57	ITI	n/a	n/a	n/a	n/a	n/a	n/a	n/a	n/a	n/a	n/a	n/a	n/a	n/a	n/a	n/a	n/a
102.835	2.355	trial	1525.0	Novel	NOT*BOTH	**RED***	LEFT*MIDDLE*	Correct	25.0	left_index_finger	red	horizontal	low	constant	red	vertical	high	constant
105.19	11.775	delay	n/a	n/a	n/a	n/a	n/a	n/a	n/a	n/a	n/a	n/a	n/a	n/a	n/a	n/a	n/a	n/a
116.965	3.9250000000000003	encoding	n/a	Novel	NEITHER*	HI*PITCH	RIGHT*INDEX*	n/a	52.0	n/a	n/a	n/a	n/a	n/a	n/a	n/a	n/a	n/a
120.89	4.71	delay	n/a	n/a	n/a	n/a	n/a	n/a	n/a	n/a	n/a	n/a	n/a	n/a	n/a	n/a	n/a	n/a
125.6	2.355	trial	2055.0	Novel	NEITHER*	HI*PITCH	RIGHT*INDEX*	Correct	52.0	right_middle_finger	red	vertical	low	alarm	red	vertical	high	constant
127.955	1.57	ITI	n/a	n/a	n/a	n/a	n/a	n/a	n/a	n/a	n/a	n/a	n/a	n/a	n/a	n/a	n/a	n/a
129.525	2.355	trial	1587.0	Novel	NEITHER*	HI*PITCH	RIGHT*INDEX*	Correct	52.0	right_index_finger	blue	horizontal	low	constant	blue	horizontal	low	constant
131.88	1.57	ITI	n/a	n/a	n/a	n/a	n/a	n/a	n/a	n/a	n/a	n/a	n/a	n/a	n/a	n/a	n/a	n/a
133.45	2.355	trial	0.0	Novel	NEITHER*	HI*PITCH	RIGHT*INDEX*	No Response	52.0	no_response	red	vertical	high	alarm	red	horizontal	low	alarm
135.80499999999998	9.42	delay	n/a	n/a	n/a	n/a	n/a	n/a	n/a	n/a	n/a	n/a	n/a	n/a	n/a	n/a	n/a	n/a
145.22499999999997	3.9250000000000003	encoding	n/a	Novel	NEITHER*	VERTICAL	*LEFT*INDEX*	n/a	62.0	n/a	n/a	n/a	n/a	n/a	n/a	n/a	n/a	n/a
149.14999999999998	3.14	delay	n/a	n/a	n/a	n/a	n/a	n/a	n/a	n/a	n/a	n/a	n/a	n/a	n/a	n/a	n/a	n/a
152.28999999999996	2.355	trial	2228.0	Novel	NEITHER*	VERTICAL	*LEFT*INDEX*	Correct	62.0	left_index_finger	red	horizontal	low	constant	red	horizontal	low	alarm
154.64499999999995	1.57	ITI	n/a	n/a	n/a	n/a	n/a	n/a	n/a	n/a	n/a	n/a	n/a	n/a	n/a	n/a	n/a	n/a
156.21499999999995	2.355	trial	1706.0	Novel	NEITHER*	VERTICAL	*LEFT*INDEX*	Correct	62.0	left_index_finger	blue	horizontal	low	alarm	red	horizontal	low	alarm
158.56999999999994	1.57	ITI	n/a	n/a	n/a	n/a	n/a	n/a	n/a	n/a	n/a	n/a	n/a	n/a	n/a	n/a	n/a	n/a
160.13999999999993	2.355	trial	1651.0	Novel	NEITHER*	VERTICAL	*LEFT*INDEX*	Correct	62.0	left_middle_finger	blue	vertical	low	constant	blue	horizontal	high	constant
162.49499999999992	10.99	delay	n/a	n/a	n/a	n/a	n/a	n/a	n/a	n/a	n/a	n/a	n/a	n/a	n/a	n/a	n/a	n/a
173.48499999999993	3.9250000000000003	encoding	n/a	Novel	NOT*BOTH	**RED***	RIGHT*INDEX*	n/a	28.0	n/a	n/a	n/a	n/a	n/a	n/a	n/a	n/a	n/a
177.40999999999994	5.495	delay	n/a	n/a	n/a	n/a	n/a	n/a	n/a	n/a	n/a	n/a	n/a	n/a	n/a	n/a	n/a	n/a
182.90499999999994	2.355	trial	2566.0	Novel	NOT*BOTH	**RED***	RIGHT*INDEX*	Correct	28.0	right_index_finger	red	horizontal	low	constant	blue	horizontal	high	constant
185.25999999999993	1.57	ITI	n/a	n/a	n/a	n/a	n/a	n/a	n/a	n/a	n/a	n/a	n/a	n/a	n/a	n/a	n/a	n/a
186.82999999999993	2.355	trial	1609.0	Novel	NOT*BOTH	**RED***	RIGHT*INDEX*	Correct	28.0	right_middle_finger	red	horizontal	low	alarm	red	horizontal	low	alarm
189.18499999999992	1.57	ITI	n/a	n/a	n/a	n/a	n/a	n/a	n/a	n/a	n/a	n/a	n/a	n/a	n/a	n/a	n/a	n/a
190.7549999999999	2.355	trial	1823.0	Novel	NOT*BOTH	**RED***	RIGHT*INDEX*	Correct	28.0	right_index_finger	blue	horizontal	high	alarm	blue	vertical	high	constant
193.1099999999999	8.635	delay	n/a	n/a	n/a	n/a	n/a	n/a	n/a	n/a	n/a	n/a	n/a	n/a	n/a	n/a	n/a	n/a
201.7449999999999	3.9250000000000003	encoding	n/a	Novel	*EITHER*	CONSTANT	RIGHT*MIDDLE	n/a	39.0	n/a	n/a	n/a	n/a	n/a	n/a	n/a	n/a	n/a
205.6699999999999	4.71	delay	n/a	n/a	n/a	n/a	n/a	n/a	n/a	n/a	n/a	n/a	n/a	n/a	n/a	n/a	n/a	n/a
210.3799999999999	2.355	trial	2840.0	Novel	*EITHER*	CONSTANT	RIGHT*MIDDLE	Correct	39.0	right_index_finger	blue	horizontal	high	alarm	blue	horizontal	high	alarm
212.7349999999999	1.57	ITI	n/a	n/a	n/a	n/a	n/a	n/a	n/a	n/a	n/a	n/a	n/a	n/a	n/a	n/a	n/a	n/a
214.3049999999999	2.355	trial	2499.0	Novel	*EITHER*	CONSTANT	RIGHT*MIDDLE	Correct	39.0	right_index_finger	blue	horizontal	low	alarm	blue	vertical	high	alarm
216.65999999999988	1.57	ITI	n/a	n/a	n/a	n/a	n/a	n/a	n/a	n/a	n/a	n/a	n/a	n/a	n/a	n/a	n/a	n/a
218.22999999999988	2.355	trial	2234.0	Novel	*EITHER*	CONSTANT	RIGHT*MIDDLE	Correct	39.0	right_index_finger	red	horizontal	high	alarm	red	horizontal	low	alarm
220.58499999999987	9.42	delay	n/a	n/a	n/a	n/a	n/a	n/a	n/a	n/a	n/a	n/a	n/a	n/a	n/a	n/a	n/a	n/a
230.00499999999985	3.9250000000000003	encoding	n/a	Novel	*EITHER*	VERTICAL	*LEFT*INDEX*	n/a	46.0	n/a	n/a	n/a	n/a	n/a	n/a	n/a	n/a	n/a
233.92999999999986	5.495	delay	n/a	n/a	n/a	n/a	n/a	n/a	n/a	n/a	n/a	n/a	n/a	n/a	n/a	n/a	n/a	n/a
239.42499999999987	2.355	trial	2535.0	Novel	*EITHER*	VERTICAL	*LEFT*INDEX*	Correct	46.0	left_index_finger	blue	vertical	low	alarm	red	vertical	low	alarm
241.77999999999986	1.57	ITI	n/a	n/a	n/a	n/a	n/a	n/a	n/a	n/a	n/a	n/a	n/a	n/a	n/a	n/a	n/a	n/a
243.34999999999985	2.355	trial	2203.0	Novel	*EITHER*	VERTICAL	*LEFT*INDEX*	Correct	46.0	left_index_finger	blue	horizontal	high	alarm	blue	vertical	high	alarm
245.70499999999984	1.57	ITI	n/a	n/a	n/a	n/a	n/a	n/a	n/a	n/a	n/a	n/a	n/a	n/a	n/a	n/a	n/a	n/a
247.27499999999984	2.355	trial	2068.0	Novel	*EITHER*	VERTICAL	*LEFT*INDEX*	Correct	46.0	left_index_finger	blue	horizontal	low	constant	blue	vertical	high	alarm
249.62999999999982	8.635	delay	n/a	n/a	n/a	n/a	n/a	n/a	n/a	n/a	n/a	n/a	n/a	n/a	n/a	n/a	n/a	n/a
258.2649999999998	3.9250000000000003	encoding	n/a	Novel	*EITHER*	CONSTANT	LEFT*MIDDLE*	n/a	37.0	n/a	n/a	n/a	n/a	n/a	n/a	n/a	n/a	n/a
262.1899999999998	3.14	delay	n/a	n/a	n/a	n/a	n/a	n/a	n/a	n/a	n/a	n/a	n/a	n/a	n/a	n/a	n/a	n/a
265.3299999999998	2.355	trial	2431.0	Novel	*EITHER*	CONSTANT	LEFT*MIDDLE*	Correct	37.0	left_middle_finger	red	vertical	low	constant	red	horizontal	high	alarm
267.68499999999983	1.57	ITI	n/a	n/a	n/a	n/a	n/a	n/a	n/a	n/a	n/a	n/a	n/a	n/a	n/a	n/a	n/a	n/a
269.2549999999998	2.355	trial	1937.0	Novel	*EITHER*	CONSTANT	LEFT*MIDDLE*	Correct	37.0	left_index_finger	blue	vertical	high	alarm	blue	vertical	high	alarm
271.60999999999984	1.57	ITI	n/a	n/a	n/a	n/a	n/a	n/a	n/a	n/a	n/a	n/a	n/a	n/a	n/a	n/a	n/a	n/a
273.17999999999984	2.355	trial	2118.0	Novel	*EITHER*	CONSTANT	LEFT*MIDDLE*	Correct	37.0	left_index_finger	blue	vertical	low	alarm	blue	horizontal	high	alarm
275.53499999999985	10.99	delay	n/a	n/a	n/a	n/a	n/a	n/a	n/a	n/a	n/a	n/a	n/a	n/a	n/a	n/a	n/a	n/a
286.52499999999986	3.9250000000000003	encoding	n/a	Novel	*EITHER*	VERTICAL	LEFT*MIDDLE*	n/a	45.0	n/a	n/a	n/a	n/a	n/a	n/a	n/a	n/a	n/a
290.4499999999999	5.495	delay	n/a	n/a	n/a	n/a	n/a	n/a	n/a	n/a	n/a	n/a	n/a	n/a	n/a	n/a	n/a	n/a
295.9449999999999	2.355	trial	2260.0	Novel	*EITHER*	VERTICAL	LEFT*MIDDLE*	Correct	45.0	left_middle_finger	blue	vertical	high	constant	red	vertical	high	constant
298.2999999999999	1.57	ITI	n/a	n/a	n/a	n/a	n/a	n/a	n/a	n/a	n/a	n/a	n/a	n/a	n/a	n/a	n/a	n/a
299.8699999999999	2.355	trial	1805.0	Novel	*EITHER*	VERTICAL	LEFT*MIDDLE*	Correct	45.0	left_middle_finger	blue	vertical	low	constant	blue	horizontal	low	alarm
302.2249999999999	1.57	ITI	n/a	n/a	n/a	n/a	n/a	n/a	n/a	n/a	n/a	n/a	n/a	n/a	n/a	n/a	n/a	n/a
303.7949999999999	2.355	trial	1616.0	Novel	*EITHER*	VERTICAL	LEFT*MIDDLE*	Correct	45.0	left_index_finger	blue	horizontal	low	alarm	red	horizontal	high	constant
306.1499999999999	8.635	delay	n/a	n/a	n/a	n/a	n/a	n/a	n/a	n/a	n/a	n/a	n/a	n/a	n/a	n/a	n/a	n/a
314.7849999999999	3.9250000000000003	encoding	n/a	Novel	*EITHER*	CONSTANT	*LEFT*INDEX*	n/a	38.0	n/a	n/a	n/a	n/a	n/a	n/a	n/a	n/a	n/a
318.7099999999999	3.14	delay	n/a	n/a	n/a	n/a	n/a	n/a	n/a	n/a	n/a	n/a	n/a	n/a	n/a	n/a	n/a	n/a
321.8499999999999	2.355	trial	2396.0	Novel	*EITHER*	CONSTANT	*LEFT*INDEX*	Correct	38.0	left_middle_finger	red	horizontal	low	alarm	red	vertical	high	alarm
324.2049999999999	1.57	ITI	n/a	n/a	n/a	n/a	n/a	n/a	n/a	n/a	n/a	n/a	n/a	n/a	n/a	n/a	n/a	n/a
325.7749999999999	2.355	trial	2262.0	Novel	*EITHER*	CONSTANT	*LEFT*INDEX*	Correct	38.0	left_index_finger	blue	horizontal	high	constant	blue	horizontal	high	alarm
328.12999999999994	1.57	ITI	n/a	n/a	n/a	n/a	n/a	n/a	n/a	n/a	n/a	n/a	n/a	n/a	n/a	n/a	n/a	n/a
329.69999999999993	2.355	trial	1752.0	Novel	*EITHER*	CONSTANT	*LEFT*INDEX*	Correct	38.0	left_index_finger	red	vertical	high	constant	blue	vertical	high	constant
332.05499999999995	10.99	delay	n/a	n/a	n/a	n/a	n/a	n/a	n/a	n/a	n/a	n/a	n/a	n/a	n/a	n/a	n/a	n/a
343.04499999999996	3.9250000000000003	encoding	n/a	Novel	*EITHER*	**RED***	RIGHT*INDEX*	n/a	44.0	n/a	n/a	n/a	n/a	n/a	n/a	n/a	n/a	n/a
346.96999999999997	4.71	delay	n/a	n/a	n/a	n/a	n/a	n/a	n/a	n/a	n/a	n/a	n/a	n/a	n/a	n/a	n/a	n/a
351.67999999999995	2.355	trial	1864.0	Novel	*EITHER*	**RED***	RIGHT*INDEX*	Correct	44.0	right_index_finger	blue	horizontal	low	constant	red	horizontal	high	constant
354.03499999999997	1.57	ITI	n/a	n/a	n/a	n/a	n/a	n/a	n/a	n/a	n/a	n/a	n/a	n/a	n/a	n/a	n/a	n/a
355.60499999999996	2.355	trial	1722.0	Novel	*EITHER*	**RED***	RIGHT*INDEX*	Correct	44.0	right_middle_finger	blue	horizontal	low	alarm	blue	vertical	high	constant
357.96	1.57	ITI	n/a	n/a	n/a	n/a	n/a	n/a	n/a	n/a	n/a	n/a	n/a	n/a	n/a	n/a	n/a	n/a
359.53	2.355	trial	1680.0	Novel	*EITHER*	**RED***	RIGHT*INDEX*	Correct	44.0	right_index_finger	red	horizontal	high	alarm	blue	vertical	high	alarm
361.885	9.42	delay	n/a	n/a	n/a	n/a	n/a	n/a	n/a	n/a	n/a	n/a	n/a	n/a	n/a	n/a	n/a	n/a
371.305	3.9250000000000003	encoding	n/a	Novel	NOT*BOTH	CONSTANT	*LEFT*INDEX*	n/a	22.0	n/a	n/a	n/a	n/a	n/a	n/a	n/a	n/a	n/a
375.23	6.28	delay	n/a	n/a	n/a	n/a	n/a	n/a	n/a	n/a	n/a	n/a	n/a	n/a	n/a	n/a	n/a	n/a
381.51	2.355	trial	3622.0	Novel	NOT*BOTH	CONSTANT	*LEFT*INDEX*	Correct	22.0	left_middle_finger	red	horizontal	low	constant	blue	vertical	low	constant
383.865	1.57	ITI	n/a	n/a	n/a	n/a	n/a	n/a	n/a	n/a	n/a	n/a	n/a	n/a	n/a	n/a	n/a	n/a
385.435	2.355	trial	2351.0	Novel	NOT*BOTH	CONSTANT	*LEFT*INDEX*	Correct	22.0	left_index_finger	blue	horizontal	low	alarm	red	vertical	low	alarm
387.79	1.57	ITI	n/a	n/a	n/a	n/a	n/a	n/a	n/a	n/a	n/a	n/a	n/a	n/a	n/a	n/a	n/a	n/a
389.36	2.355	trial	2109.0	Novel	NOT*BOTH	CONSTANT	*LEFT*INDEX*	Correct	22.0	left_index_finger	blue	horizontal	low	alarm	red	vertical	low	alarm
391.71500000000003	7.85	delay	n/a	n/a	n/a	n/a	n/a	n/a	n/a	n/a	n/a	n/a	n/a	n/a	n/a	n/a	n/a	n/a
399.56500000000005	3.9250000000000003	encoding	n/a	Novel	**BOTH**	**RED***	LEFT*MIDDLE*	n/a	9.0	n/a	n/a	n/a	n/a	n/a	n/a	n/a	n/a	n/a
403.49000000000007	1.57	delay	n/a	n/a	n/a	n/a	n/a	n/a	n/a	n/a	n/a	n/a	n/a	n/a	n/a	n/a	n/a	n/a
405.06000000000006	2.355	trial	2164.0	Novel	**BOTH**	**RED***	LEFT*MIDDLE*	Correct	9.0	left_index_finger	blue	vertical	high	alarm	red	vertical	high	alarm
407.4150000000001	1.57	ITI	n/a	n/a	n/a	n/a	n/a	n/a	n/a	n/a	n/a	n/a	n/a	n/a	n/a	n/a	n/a	n/a
408.98500000000007	2.355	trial	1580.0	Novel	**BOTH**	**RED***	LEFT*MIDDLE*	Correct	9.0	left_middle_finger	red	horizontal	high	alarm	red	horizontal	high	constant
411.3400000000001	1.57	ITI	n/a	n/a	n/a	n/a	n/a	n/a	n/a	n/a	n/a	n/a	n/a	n/a	n/a	n/a	n/a	n/a
412.9100000000001	2.355	trial	2104.0	Novel	**BOTH**	**RED***	LEFT*MIDDLE*	Correct	9.0	left_index_finger	blue	horizontal	low	alarm	blue	horizontal	high	alarm
415.2650000000001	12.56	delay	n/a	n/a	n/a	n/a	n/a	n/a	n/a	n/a	n/a	n/a	n/a	n/a	n/a	n/a	n/a	n/a
427.8250000000001	3.9250000000000003	encoding	n/a	Novel	*EITHER*	HI*PITCH	*LEFT*INDEX*	n/a	34.0	n/a	n/a	n/a	n/a	n/a	n/a	n/a	n/a	n/a
431.7500000000001	3.925	delay	n/a	n/a	n/a	n/a	n/a	n/a	n/a	n/a	n/a	n/a	n/a	n/a	n/a	n/a	n/a	n/a
435.6750000000001	2.355	trial	1946.0	Novel	*EITHER*	HI*PITCH	*LEFT*INDEX*	Correct	34.0	left_index_finger	red	vertical	low	alarm	blue	horizontal	high	alarm
438.03000000000014	1.57	ITI	n/a	n/a	n/a	n/a	n/a	n/a	n/a	n/a	n/a	n/a	n/a	n/a	n/a	n/a	n/a	n/a
439.60000000000014	2.355	trial	1738.0	Novel	*EITHER*	HI*PITCH	*LEFT*INDEX*	Correct	34.0	left_middle_finger	blue	horizontal	low	alarm	red	vertical	low	alarm
441.95500000000015	1.57	ITI	n/a	n/a	n/a	n/a	n/a	n/a	n/a	n/a	n/a	n/a	n/a	n/a	n/a	n/a	n/a	n/a
443.52500000000015	2.355	trial	1724.0	Novel	*EITHER*	HI*PITCH	*LEFT*INDEX*	Correct	34.0	left_index_finger	red	horizontal	high	alarm	red	vertical	low	alarm
445.88000000000017	10.205	delay	n/a	n/a	n/a	n/a	n/a	n/a	n/a	n/a	n/a	n/a	n/a	n/a	n/a	n/a	n/a	n/a
