onset	duration	task_event	rt_in_ms	task_novelty	logic_rule	sensory_rule	motor_rule	performance	task_id	motor_response	stimulus1_color	stimulus1_orientation	stimulus1_pitch	stimulus1_continuity	stimulus2_color	stimulus2_orientation	stimulus2_pitch	stimulus2_continuity
0.0	3.9250000000000003	delay	n/a	n/a	n/a	n/a	n/a	n/a	n/a	n/a	n/a	n/a	n/a	n/a	n/a	n/a	n/a	n/a
3.9250000000000003	3.9250000000000003	encoding	n/a	Novel	**BOTH**	HI*PITCH	*LEFT*INDEX*	n/a	2.0	n/a	n/a	n/a	n/a	n/a	n/a	n/a	n/a	n/a
7.8500000000000005	5.495	delay	n/a	n/a	n/a	n/a	n/a	n/a	n/a	n/a	n/a	n/a	n/a	n/a	n/a	n/a	n/a	n/a
13.345	2.355	trial	1839.0	Novel	**BOTH**	HI*PITCH	*LEFT*INDEX*	Correct	2.0	left_middle_finger	red	horizontal	high	alarm	blue	horizontal	low	constant
15.700000000000001	1.57	ITI	n/a	n/a	n/a	n/a	n/a	n/a	n/a	n/a	n/a	n/a	n/a	n/a	n/a	n/a	n/a	n/a
17.27	2.355	trial	2088.0	Novel	**BOTH**	HI*PITCH	*LEFT*INDEX*	Correct	2.0	left_middle_finger	red	vertical	low	alarm	red	horizontal	high	alarm
19.625	1.57	ITI	n/a	n/a	n/a	n/a	n/a	n/a	n/a	n/a	n/a	n/a	n/a	n/a	n/a	n/a	n/a	n/a
21.195	2.355	trial	1865.0	Novel	**BOTH**	HI*PITCH	*LEFT*INDEX*	Correct	2.0	left_index_finger	blue	vertical	high	constant	blue	vertical	high	alarm
23.55	8.635	delay	n/a	n/a	n/a	n/a	n/a	n/a	n/a	n/a	n/a	n/a	n/a	n/a	n/a	n/a	n/a	n/a
32.185	3.9250000000000003	encoding	n/a	Prac	NEITHER*	VERTICAL	RIGHT*INDEX*	n/a	64.0	n/a	n/a	n/a	n/a	n/a	n/a	n/a	n/a	n/a
36.11	3.14	delay	n/a	n/a	n/a	n/a	n/a	n/a	n/a	n/a	n/a	n/a	n/a	n/a	n/a	n/a	n/a	n/a
39.25	2.355	trial	1805.0	Prac	NEITHER*	VERTICAL	RIGHT*INDEX*	Correct	64.0	right_index_finger	red	horizontal	high	alarm	blue	horizontal	high	constant
41.605	1.57	ITI	n/a	n/a	n/a	n/a	n/a	n/a	n/a	n/a	n/a	n/a	n/a	n/a	n/a	n/a	n/a	n/a
43.175	2.355	trial	1904.0	Prac	NEITHER*	VERTICAL	RIGHT*INDEX*	Correct	64.0	right_index_finger	blue	horizontal	low	constant	red	horizontal	high	alarm
45.529999999999994	1.57	ITI	n/a	n/a	n/a	n/a	n/a	n/a	n/a	n/a	n/a	n/a	n/a	n/a	n/a	n/a	n/a	n/a
47.099999999999994	2.355	trial	1344.0	Prac	NEITHER*	VERTICAL	RIGHT*INDEX*	Correct	64.0	right_middle_finger	red	vertical	high	constant	blue	horizontal	high	alarm
49.45499999999999	10.99	delay	n/a	n/a	n/a	n/a	n/a	n/a	n/a	n/a	n/a	n/a	n/a	n/a	n/a	n/a	n/a	n/a
60.44499999999999	3.9250000000000003	encoding	n/a	Novel	**BOTH**	CONSTANT	LEFT*MIDDLE*	n/a	5.0	n/a	n/a	n/a	n/a	n/a	n/a	n/a	n/a	n/a
64.36999999999999	3.14	delay	n/a	n/a	n/a	n/a	n/a	n/a	n/a	n/a	n/a	n/a	n/a	n/a	n/a	n/a	n/a	n/a
67.50999999999999	2.355	trial	1902.0	Novel	**BOTH**	CONSTANT	LEFT*MIDDLE*	Correct	5.0	left_middle_finger	red	horizontal	low	constant	red	vertical	low	constant
69.865	1.57	ITI	n/a	n/a	n/a	n/a	n/a	n/a	n/a	n/a	n/a	n/a	n/a	n/a	n/a	n/a	n/a	n/a
71.43499999999999	2.355	trial	2072.0	Novel	**BOTH**	CONSTANT	LEFT*MIDDLE*	Correct	5.0	left_index_finger	blue	vertical	high	constant	blue	horizontal	low	alarm
73.78999999999999	1.57	ITI	n/a	n/a	n/a	n/a	n/a	n/a	n/a	n/a	n/a	n/a	n/a	n/a	n/a	n/a	n/a	n/a
75.35999999999999	2.355	trial	1437.0	Novel	**BOTH**	CONSTANT	LEFT*MIDDLE*	Correct	5.0	left_index_finger	blue	horizontal	low	alarm	red	horizontal	low	alarm
77.71499999999999	10.99	delay	n/a	n/a	n/a	n/a	n/a	n/a	n/a	n/a	n/a	n/a	n/a	n/a	n/a	n/a	n/a	n/a
88.70499999999998	3.9250000000000003	encoding	n/a	Novel	NEITHER*	**RED***	RIGHT*INDEX*	n/a	60.0	n/a	n/a	n/a	n/a	n/a	n/a	n/a	n/a	n/a
92.62999999999998	1.57	delay	n/a	n/a	n/a	n/a	n/a	n/a	n/a	n/a	n/a	n/a	n/a	n/a	n/a	n/a	n/a	n/a
94.19999999999997	2.355	trial	1927.0	Novel	NEITHER*	**RED***	RIGHT*INDEX*	Correct	60.0	right_index_finger	blue	vertical	low	alarm	blue	horizontal	high	constant
96.55499999999998	1.57	ITI	n/a	n/a	n/a	n/a	n/a	n/a	n/a	n/a	n/a	n/a	n/a	n/a	n/a	n/a	n/a	n/a
98.12499999999997	2.355	trial	1210.0	Novel	NEITHER*	**RED***	RIGHT*INDEX*	Correct	60.0	right_middle_finger	red	vertical	high	alarm	red	vertical	low	alarm
100.47999999999998	1.57	ITI	n/a	n/a	n/a	n/a	n/a	n/a	n/a	n/a	n/a	n/a	n/a	n/a	n/a	n/a	n/a	n/a
102.04999999999997	2.355	trial	1685.0	Novel	NEITHER*	**RED***	RIGHT*INDEX*	Correct	60.0	right_index_finger	blue	vertical	low	constant	blue	vertical	high	alarm
104.40499999999997	12.56	delay	n/a	n/a	n/a	n/a	n/a	n/a	n/a	n/a	n/a	n/a	n/a	n/a	n/a	n/a	n/a	n/a
116.96499999999997	3.9250000000000003	encoding	n/a	Novel	**BOTH**	**RED***	RIGHT*INDEX*	n/a	12.0	n/a	n/a	n/a	n/a	n/a	n/a	n/a	n/a	n/a
120.88999999999997	3.925	delay	n/a	n/a	n/a	n/a	n/a	n/a	n/a	n/a	n/a	n/a	n/a	n/a	n/a	n/a	n/a	n/a
124.81499999999997	2.355	trial	1674.0	Novel	**BOTH**	**RED***	RIGHT*INDEX*	Correct	12.0	right_middle_finger	blue	vertical	high	constant	red	vertical	low	constant
127.16999999999997	1.57	ITI	n/a	n/a	n/a	n/a	n/a	n/a	n/a	n/a	n/a	n/a	n/a	n/a	n/a	n/a	n/a	n/a
128.73999999999998	2.355	trial	1472.0	Novel	**BOTH**	**RED***	RIGHT*INDEX*	Correct	12.0	right_middle_finger	blue	vertical	low	alarm	blue	vertical	low	constant
131.09499999999997	1.57	ITI	n/a	n/a	n/a	n/a	n/a	n/a	n/a	n/a	n/a	n/a	n/a	n/a	n/a	n/a	n/a	n/a
132.66499999999996	2.355	trial	1107.0	Novel	**BOTH**	**RED***	RIGHT*INDEX*	Correct	12.0	right_middle_finger	blue	vertical	low	alarm	blue	vertical	high	alarm
135.01999999999995	10.205	delay	n/a	n/a	n/a	n/a	n/a	n/a	n/a	n/a	n/a	n/a	n/a	n/a	n/a	n/a	n/a	n/a
145.22499999999997	3.9250000000000003	encoding	n/a	Novel	*EITHER*	VERTICAL	*LEFT*INDEX*	n/a	46.0	n/a	n/a	n/a	n/a	n/a	n/a	n/a	n/a	n/a
149.14999999999998	5.495	delay	n/a	n/a	n/a	n/a	n/a	n/a	n/a	n/a	n/a	n/a	n/a	n/a	n/a	n/a	n/a	n/a
154.64499999999998	2.355	trial	576.0	Novel	*EITHER*	VERTICAL	*LEFT*INDEX*	Correct	46.0	left_index_finger	red	vertical	high	constant	red	vertical	low	alarm
156.99999999999997	1.57	ITI	n/a	n/a	n/a	n/a	n/a	n/a	n/a	n/a	n/a	n/a	n/a	n/a	n/a	n/a	n/a	n/a
158.56999999999996	2.355	trial	1699.0	Novel	*EITHER*	VERTICAL	*LEFT*INDEX*	Correct	46.0	left_middle_finger	red	horizontal	low	constant	red	horizontal	high	constant
160.92499999999995	1.57	ITI	n/a	n/a	n/a	n/a	n/a	n/a	n/a	n/a	n/a	n/a	n/a	n/a	n/a	n/a	n/a	n/a
162.49499999999995	2.355	trial	1848.0	Novel	*EITHER*	VERTICAL	*LEFT*INDEX*	Correct	46.0	left_middle_finger	blue	horizontal	low	constant	blue	horizontal	high	alarm
164.84999999999994	8.635	delay	n/a	n/a	n/a	n/a	n/a	n/a	n/a	n/a	n/a	n/a	n/a	n/a	n/a	n/a	n/a	n/a
173.48499999999993	3.9250000000000003	encoding	n/a	Novel	*EITHER*	HI*PITCH	RIGHT*MIDDLE	n/a	35.0	n/a	n/a	n/a	n/a	n/a	n/a	n/a	n/a	n/a
177.40999999999994	2.355	delay	n/a	n/a	n/a	n/a	n/a	n/a	n/a	n/a	n/a	n/a	n/a	n/a	n/a	n/a	n/a	n/a
179.76499999999993	2.355	trial	827.0	Novel	*EITHER*	HI*PITCH	RIGHT*MIDDLE	Correct	35.0	right_middle_finger	red	vertical	high	alarm	red	horizontal	high	alarm
182.11999999999992	1.57	ITI	n/a	n/a	n/a	n/a	n/a	n/a	n/a	n/a	n/a	n/a	n/a	n/a	n/a	n/a	n/a	n/a
183.6899999999999	2.355	trial	1948.0	Novel	*EITHER*	HI*PITCH	RIGHT*MIDDLE	Correct	35.0	right_middle_finger	blue	horizontal	low	alarm	blue	horizontal	high	alarm
186.0449999999999	1.57	ITI	n/a	n/a	n/a	n/a	n/a	n/a	n/a	n/a	n/a	n/a	n/a	n/a	n/a	n/a	n/a	n/a
187.6149999999999	2.355	trial	1949.0	Novel	*EITHER*	HI*PITCH	RIGHT*MIDDLE	Correct	35.0	right_index_finger	blue	vertical	low	constant	blue	vertical	low	constant
189.96999999999989	11.775	delay	n/a	n/a	n/a	n/a	n/a	n/a	n/a	n/a	n/a	n/a	n/a	n/a	n/a	n/a	n/a	n/a
201.7449999999999	3.9250000000000003	encoding	n/a	Novel	**BOTH**	HI*PITCH	RIGHT*MIDDLE	n/a	3.0	n/a	n/a	n/a	n/a	n/a	n/a	n/a	n/a	n/a
205.6699999999999	4.71	delay	n/a	n/a	n/a	n/a	n/a	n/a	n/a	n/a	n/a	n/a	n/a	n/a	n/a	n/a	n/a	n/a
210.3799999999999	2.355	trial	1697.0	Novel	**BOTH**	HI*PITCH	RIGHT*MIDDLE	Correct	3.0	right_index_finger	red	horizontal	low	alarm	red	horizontal	high	constant
212.7349999999999	1.57	ITI	n/a	n/a	n/a	n/a	n/a	n/a	n/a	n/a	n/a	n/a	n/a	n/a	n/a	n/a	n/a	n/a
214.3049999999999	2.355	trial	1282.0	Novel	**BOTH**	HI*PITCH	RIGHT*MIDDLE	Correct	3.0	right_index_finger	blue	horizontal	low	alarm	red	horizontal	high	alarm
216.65999999999988	1.57	ITI	n/a	n/a	n/a	n/a	n/a	n/a	n/a	n/a	n/a	n/a	n/a	n/a	n/a	n/a	n/a	n/a
218.22999999999988	2.355	trial	1748.0	Novel	**BOTH**	HI*PITCH	RIGHT*MIDDLE	Correct	3.0	right_index_finger	blue	horizontal	low	constant	blue	vertical	low	constant
220.58499999999987	9.42	delay	n/a	n/a	n/a	n/a	n/a	n/a	n/a	n/a	n/a	n/a	n/a	n/a	n/a	n/a	n/a	n/a
230.00499999999985	3.9250000000000003	encoding	n/a	Novel	**BOTH**	**RED***	LEFT*MIDDLE*	n/a	9.0	n/a	n/a	n/a	n/a	n/a	n/a	n/a	n/a	n/a
233.92999999999986	6.28	delay	n/a	n/a	n/a	n/a	n/a	n/a	n/a	n/a	n/a	n/a	n/a	n/a	n/a	n/a	n/a	n/a
240.20999999999987	2.355	trial	1781.0	Novel	**BOTH**	**RED***	LEFT*MIDDLE*	Correct	9.0	left_middle_finger	red	horizontal	low	constant	red	vertical	low	constant
242.56499999999986	1.57	ITI	n/a	n/a	n/a	n/a	n/a	n/a	n/a	n/a	n/a	n/a	n/a	n/a	n/a	n/a	n/a	n/a
244.13499999999985	2.355	trial	947.0	Novel	**BOTH**	**RED***	LEFT*MIDDLE*	Correct	9.0	left_index_finger	blue	vertical	high	alarm	red	vertical	high	alarm
246.48999999999984	1.57	ITI	n/a	n/a	n/a	n/a	n/a	n/a	n/a	n/a	n/a	n/a	n/a	n/a	n/a	n/a	n/a	n/a
248.05999999999983	2.355	trial	1722.0	Novel	**BOTH**	**RED***	LEFT*MIDDLE*	Correct	9.0	left_middle_finger	red	horizontal	high	constant	red	horizontal	low	alarm
250.41499999999982	7.85	delay	n/a	n/a	n/a	n/a	n/a	n/a	n/a	n/a	n/a	n/a	n/a	n/a	n/a	n/a	n/a	n/a
258.2649999999998	3.9250000000000003	encoding	n/a	Novel	NEITHER*	VERTICAL	*LEFT*INDEX*	n/a	62.0	n/a	n/a	n/a	n/a	n/a	n/a	n/a	n/a	n/a
262.1899999999998	3.925	delay	n/a	n/a	n/a	n/a	n/a	n/a	n/a	n/a	n/a	n/a	n/a	n/a	n/a	n/a	n/a	n/a
266.11499999999984	2.355	trial	1772.0	Novel	NEITHER*	VERTICAL	*LEFT*INDEX*	Correct	62.0	left_index_finger	red	horizontal	high	alarm	blue	horizontal	low	constant
268.46999999999986	1.57	ITI	n/a	n/a	n/a	n/a	n/a	n/a	n/a	n/a	n/a	n/a	n/a	n/a	n/a	n/a	n/a	n/a
270.03999999999985	2.355	trial	1730.0	Novel	NEITHER*	VERTICAL	*LEFT*INDEX*	Correct	62.0	left_index_finger	red	horizontal	low	constant	red	horizontal	high	alarm
272.39499999999987	1.57	ITI	n/a	n/a	n/a	n/a	n/a	n/a	n/a	n/a	n/a	n/a	n/a	n/a	n/a	n/a	n/a	n/a
273.96499999999986	2.355	trial	1124.0	Novel	NEITHER*	VERTICAL	*LEFT*INDEX*	Correct	62.0	left_middle_finger	blue	vertical	low	alarm	blue	vertical	high	alarm
276.3199999999999	10.205	delay	n/a	n/a	n/a	n/a	n/a	n/a	n/a	n/a	n/a	n/a	n/a	n/a	n/a	n/a	n/a	n/a
286.52499999999986	3.9250000000000003	encoding	n/a	Novel	*EITHER*	VERTICAL	LEFT*MIDDLE*	n/a	45.0	n/a	n/a	n/a	n/a	n/a	n/a	n/a	n/a	n/a
290.4499999999999	6.28	delay	n/a	n/a	n/a	n/a	n/a	n/a	n/a	n/a	n/a	n/a	n/a	n/a	n/a	n/a	n/a	n/a
296.72999999999985	2.355	trial	1163.0	Novel	*EITHER*	VERTICAL	LEFT*MIDDLE*	Correct	45.0	left_middle_finger	blue	vertical	high	alarm	red	vertical	low	constant
299.08499999999987	1.57	ITI	n/a	n/a	n/a	n/a	n/a	n/a	n/a	n/a	n/a	n/a	n/a	n/a	n/a	n/a	n/a	n/a
300.65499999999986	2.355	trial	1826.0	Novel	*EITHER*	VERTICAL	LEFT*MIDDLE*	Correct	45.0	left_middle_finger	red	vertical	low	constant	red	vertical	low	alarm
303.0099999999999	1.57	ITI	n/a	n/a	n/a	n/a	n/a	n/a	n/a	n/a	n/a	n/a	n/a	n/a	n/a	n/a	n/a	n/a
304.57999999999987	2.355	trial	1824.0	Novel	*EITHER*	VERTICAL	LEFT*MIDDLE*	Correct	45.0	left_middle_finger	blue	horizontal	low	alarm	blue	vertical	high	alarm
306.9349999999999	7.85	delay	n/a	n/a	n/a	n/a	n/a	n/a	n/a	n/a	n/a	n/a	n/a	n/a	n/a	n/a	n/a	n/a
314.7849999999999	3.9250000000000003	encoding	n/a	Novel	NEITHER*	HI*PITCH	RIGHT*MIDDLE	n/a	51.0	n/a	n/a	n/a	n/a	n/a	n/a	n/a	n/a	n/a
318.7099999999999	5.495	delay	n/a	n/a	n/a	n/a	n/a	n/a	n/a	n/a	n/a	n/a	n/a	n/a	n/a	n/a	n/a	n/a
324.2049999999999	2.355	trial	1437.0	Novel	NEITHER*	HI*PITCH	RIGHT*MIDDLE	Correct	51.0	right_index_finger	blue	horizontal	high	alarm	red	horizontal	high	alarm
326.55999999999995	1.57	ITI	n/a	n/a	n/a	n/a	n/a	n/a	n/a	n/a	n/a	n/a	n/a	n/a	n/a	n/a	n/a	n/a
328.12999999999994	2.355	trial	1980.0	Novel	NEITHER*	HI*PITCH	RIGHT*MIDDLE	Correct	51.0	right_middle_finger	blue	horizontal	low	constant	blue	horizontal	low	alarm
330.48499999999996	1.57	ITI	n/a	n/a	n/a	n/a	n/a	n/a	n/a	n/a	n/a	n/a	n/a	n/a	n/a	n/a	n/a	n/a
332.05499999999995	2.355	trial	811.0	Novel	NEITHER*	HI*PITCH	RIGHT*MIDDLE	Correct	51.0	right_index_finger	blue	vertical	high	constant	blue	vertical	low	alarm
334.40999999999997	8.635	delay	n/a	n/a	n/a	n/a	n/a	n/a	n/a	n/a	n/a	n/a	n/a	n/a	n/a	n/a	n/a	n/a
343.04499999999996	3.9250000000000003	encoding	n/a	Novel	NOT*BOTH	CONSTANT	LEFT*MIDDLE*	n/a	21.0	n/a	n/a	n/a	n/a	n/a	n/a	n/a	n/a	n/a
346.96999999999997	5.495	delay	n/a	n/a	n/a	n/a	n/a	n/a	n/a	n/a	n/a	n/a	n/a	n/a	n/a	n/a	n/a	n/a
352.465	2.355	trial	2170.0	Novel	NOT*BOTH	CONSTANT	LEFT*MIDDLE*	Correct	21.0	left_index_finger	red	horizontal	low	constant	red	vertical	low	constant
354.82	1.57	ITI	n/a	n/a	n/a	n/a	n/a	n/a	n/a	n/a	n/a	n/a	n/a	n/a	n/a	n/a	n/a	n/a
356.39	2.355	trial	1888.0	Novel	NOT*BOTH	CONSTANT	LEFT*MIDDLE*	Correct	21.0	left_index_finger	red	vertical	high	constant	red	vertical	low	constant
358.745	1.57	ITI	n/a	n/a	n/a	n/a	n/a	n/a	n/a	n/a	n/a	n/a	n/a	n/a	n/a	n/a	n/a	n/a
360.315	2.355	trial	1934.0	Novel	NOT*BOTH	CONSTANT	LEFT*MIDDLE*	Correct	21.0	left_index_finger	blue	vertical	low	constant	red	horizontal	low	constant
362.67	8.635	delay	n/a	n/a	n/a	n/a	n/a	n/a	n/a	n/a	n/a	n/a	n/a	n/a	n/a	n/a	n/a	n/a
371.305	3.9250000000000003	encoding	n/a	Novel	NEITHER*	HI*PITCH	*LEFT*INDEX*	n/a	50.0	n/a	n/a	n/a	n/a	n/a	n/a	n/a	n/a	n/a
375.23	1.57	delay	n/a	n/a	n/a	n/a	n/a	n/a	n/a	n/a	n/a	n/a	n/a	n/a	n/a	n/a	n/a	n/a
376.8	2.355	trial	1410.0	Novel	NEITHER*	HI*PITCH	*LEFT*INDEX*	Correct	50.0	left_middle_finger	red	horizontal	high	alarm	blue	vertical	low	alarm
379.15500000000003	1.57	ITI	n/a	n/a	n/a	n/a	n/a	n/a	n/a	n/a	n/a	n/a	n/a	n/a	n/a	n/a	n/a	n/a
380.725	2.355	trial	2017.0	Novel	NEITHER*	HI*PITCH	*LEFT*INDEX*	Correct	50.0	left_index_finger	red	horizontal	low	constant	blue	horizontal	low	constant
383.08000000000004	1.57	ITI	n/a	n/a	n/a	n/a	n/a	n/a	n/a	n/a	n/a	n/a	n/a	n/a	n/a	n/a	n/a	n/a
384.65000000000003	2.355	trial	1494.0	Novel	NEITHER*	HI*PITCH	*LEFT*INDEX*	Correct	50.0	left_middle_finger	red	horizontal	high	constant	blue	vertical	high	alarm
387.00500000000005	12.56	delay	n/a	n/a	n/a	n/a	n/a	n/a	n/a	n/a	n/a	n/a	n/a	n/a	n/a	n/a	n/a	n/a
399.56500000000005	3.9250000000000003	encoding	n/a	Novel	NEITHER*	**RED***	LEFT*MIDDLE*	n/a	57.0	n/a	n/a	n/a	n/a	n/a	n/a	n/a	n/a	n/a
403.49000000000007	3.14	delay	n/a	n/a	n/a	n/a	n/a	n/a	n/a	n/a	n/a	n/a	n/a	n/a	n/a	n/a	n/a	n/a
406.63000000000005	2.355	trial	1377.0	Novel	NEITHER*	**RED***	LEFT*MIDDLE*	Correct	57.0	left_index_finger	red	vertical	low	alarm	blue	horizontal	low	constant
408.98500000000007	1.57	ITI	n/a	n/a	n/a	n/a	n/a	n/a	n/a	n/a	n/a	n/a	n/a	n/a	n/a	n/a	n/a	n/a
410.55500000000006	2.355	trial	1604.0	Novel	NEITHER*	**RED***	LEFT*MIDDLE*	Correct	57.0	left_middle_finger	blue	horizontal	high	constant	blue	vertical	high	alarm
412.9100000000001	1.57	ITI	n/a	n/a	n/a	n/a	n/a	n/a	n/a	n/a	n/a	n/a	n/a	n/a	n/a	n/a	n/a	n/a
414.4800000000001	2.355	trial	1700.0	Novel	NEITHER*	**RED***	LEFT*MIDDLE*	Correct	57.0	left_middle_finger	blue	vertical	high	alarm	blue	horizontal	high	alarm
416.8350000000001	10.99	delay	n/a	n/a	n/a	n/a	n/a	n/a	n/a	n/a	n/a	n/a	n/a	n/a	n/a	n/a	n/a	n/a
427.8250000000001	3.9250000000000003	encoding	n/a	Novel	NEITHER*	**RED***	RIGHT*MIDDLE	n/a	59.0	n/a	n/a	n/a	n/a	n/a	n/a	n/a	n/a	n/a
431.7500000000001	3.925	delay	n/a	n/a	n/a	n/a	n/a	n/a	n/a	n/a	n/a	n/a	n/a	n/a	n/a	n/a	n/a	n/a
435.6750000000001	2.355	trial	1763.0	Novel	NEITHER*	**RED***	RIGHT*MIDDLE	Correct	59.0	right_index_finger	red	horizontal	high	alarm	red	horizontal	low	alarm
438.03000000000014	1.57	ITI	n/a	n/a	n/a	n/a	n/a	n/a	n/a	n/a	n/a	n/a	n/a	n/a	n/a	n/a	n/a	n/a
439.60000000000014	2.355	trial	1627.0	Novel	NEITHER*	**RED***	RIGHT*MIDDLE	Correct	59.0	right_middle_finger	blue	horizontal	high	alarm	blue	vertical	high	alarm
441.95500000000015	1.57	ITI	n/a	n/a	n/a	n/a	n/a	n/a	n/a	n/a	n/a	n/a	n/a	n/a	n/a	n/a	n/a	n/a
443.52500000000015	2.355	trial	1687.0	Novel	NEITHER*	**RED***	RIGHT*MIDDLE	Correct	59.0	right_middle_finger	blue	vertical	high	alarm	blue	horizontal	low	alarm
445.88000000000017	10.205	delay	n/a	n/a	n/a	n/a	n/a	n/a	n/a	n/a	n/a	n/a	n/a	n/a	n/a	n/a	n/a	n/a
