onset	duration	task_event	rt_in_ms	task_novelty	logic_rule	sensory_rule	motor_rule	performance	task_id	motor_response	stimulus1_color	stimulus1_orientation	stimulus1_pitch	stimulus1_continuity	stimulus2_color	stimulus2_orientation	stimulus2_pitch	stimulus2_continuity
0.0	3.9250000000000003	delay	n/a	n/a	n/a	n/a	n/a	n/a	n/a	n/a	n/a	n/a	n/a	n/a	n/a	n/a	n/a	n/a
3.9250000000000003	3.9250000000000003	encoding	n/a	Novel	NOT*BOTH	CONSTANT	*LEFT*INDEX*	n/a	22.0	n/a	n/a	n/a	n/a	n/a	n/a	n/a	n/a	n/a
7.8500000000000005	3.14	delay	n/a	n/a	n/a	n/a	n/a	n/a	n/a	n/a	n/a	n/a	n/a	n/a	n/a	n/a	n/a	n/a
10.99	2.355	trial	1934.0	Novel	NOT*BOTH	CONSTANT	*LEFT*INDEX*	Wrong	22.0	left_index_finger	blue	horizontal	low	constant	blue	horizontal	low	constant
13.345	1.57	ITI	n/a	n/a	n/a	n/a	n/a	n/a	n/a	n/a	n/a	n/a	n/a	n/a	n/a	n/a	n/a	n/a
14.915000000000001	2.355	trial	1658.0	Novel	NOT*BOTH	CONSTANT	*LEFT*INDEX*	Correct	22.0	left_middle_finger	red	horizontal	high	constant	blue	horizontal	low	constant
17.27	1.57	ITI	n/a	n/a	n/a	n/a	n/a	n/a	n/a	n/a	n/a	n/a	n/a	n/a	n/a	n/a	n/a	n/a
18.84	2.355	trial	1713.0	Novel	NOT*BOTH	CONSTANT	*LEFT*INDEX*	Wrong	22.0	left_middle_finger	blue	vertical	high	alarm	red	horizontal	high	alarm
21.195	10.99	delay	n/a	n/a	n/a	n/a	n/a	n/a	n/a	n/a	n/a	n/a	n/a	n/a	n/a	n/a	n/a	n/a
32.185	3.9250000000000003	encoding	n/a	Novel	**BOTH**	VERTICAL	RIGHT*MIDDLE	n/a	15.0	n/a	n/a	n/a	n/a	n/a	n/a	n/a	n/a	n/a
36.11	1.57	delay	n/a	n/a	n/a	n/a	n/a	n/a	n/a	n/a	n/a	n/a	n/a	n/a	n/a	n/a	n/a	n/a
37.68	2.355	trial	2101.0	Novel	**BOTH**	VERTICAL	RIGHT*MIDDLE	Correct	15.0	right_middle_finger	red	vertical	high	alarm	blue	vertical	high	alarm
40.035	1.57	ITI	n/a	n/a	n/a	n/a	n/a	n/a	n/a	n/a	n/a	n/a	n/a	n/a	n/a	n/a	n/a	n/a
41.605	2.355	trial	1684.0	Novel	**BOTH**	VERTICAL	RIGHT*MIDDLE	Correct	15.0	right_middle_finger	red	vertical	high	constant	red	vertical	low	alarm
43.959999999999994	1.57	ITI	n/a	n/a	n/a	n/a	n/a	n/a	n/a	n/a	n/a	n/a	n/a	n/a	n/a	n/a	n/a	n/a
45.529999999999994	2.355	trial	1552.0	Novel	**BOTH**	VERTICAL	RIGHT*MIDDLE	Correct	15.0	right_index_finger	red	horizontal	high	alarm	red	vertical	low	constant
47.88499999999999	12.56	delay	n/a	n/a	n/a	n/a	n/a	n/a	n/a	n/a	n/a	n/a	n/a	n/a	n/a	n/a	n/a	n/a
60.44499999999999	3.9250000000000003	encoding	n/a	Novel	NEITHER*	CONSTANT	RIGHT*INDEX*	n/a	56.0	n/a	n/a	n/a	n/a	n/a	n/a	n/a	n/a	n/a
64.36999999999999	5.495	delay	n/a	n/a	n/a	n/a	n/a	n/a	n/a	n/a	n/a	n/a	n/a	n/a	n/a	n/a	n/a	n/a
69.865	2.355	trial	2221.0	Novel	NEITHER*	CONSTANT	RIGHT*INDEX*	Wrong	56.0	right_index_finger	red	horizontal	high	alarm	blue	horizontal	low	constant
72.22	1.57	ITI	n/a	n/a	n/a	n/a	n/a	n/a	n/a	n/a	n/a	n/a	n/a	n/a	n/a	n/a	n/a	n/a
73.78999999999999	2.355	trial	1851.0	Novel	NEITHER*	CONSTANT	RIGHT*INDEX*	Correct	56.0	right_index_finger	red	horizontal	high	alarm	red	horizontal	low	alarm
76.145	1.57	ITI	n/a	n/a	n/a	n/a	n/a	n/a	n/a	n/a	n/a	n/a	n/a	n/a	n/a	n/a	n/a	n/a
77.71499999999999	2.355	trial	2191.0	Novel	NEITHER*	CONSTANT	RIGHT*INDEX*	Correct	56.0	right_middle_finger	red	vertical	high	alarm	red	vertical	high	constant
80.07	8.635	delay	n/a	n/a	n/a	n/a	n/a	n/a	n/a	n/a	n/a	n/a	n/a	n/a	n/a	n/a	n/a	n/a
88.705	3.9250000000000003	encoding	n/a	Novel	NEITHER*	**RED***	LEFT*MIDDLE*	n/a	57.0	n/a	n/a	n/a	n/a	n/a	n/a	n/a	n/a	n/a
92.63	4.71	delay	n/a	n/a	n/a	n/a	n/a	n/a	n/a	n/a	n/a	n/a	n/a	n/a	n/a	n/a	n/a	n/a
97.33999999999999	2.355	trial	902.0	Novel	NEITHER*	**RED***	LEFT*MIDDLE*	Correct	57.0	left_index_finger	red	horizontal	low	constant	red	horizontal	low	alarm
99.695	1.57	ITI	n/a	n/a	n/a	n/a	n/a	n/a	n/a	n/a	n/a	n/a	n/a	n/a	n/a	n/a	n/a	n/a
101.26499999999999	2.355	trial	1836.0	Novel	NEITHER*	**RED***	LEFT*MIDDLE*	Correct	57.0	left_index_finger	blue	horizontal	low	constant	red	vertical	high	alarm
103.61999999999999	1.57	ITI	n/a	n/a	n/a	n/a	n/a	n/a	n/a	n/a	n/a	n/a	n/a	n/a	n/a	n/a	n/a	n/a
105.18999999999998	2.355	trial	1663.0	Novel	NEITHER*	**RED***	LEFT*MIDDLE*	Correct	57.0	left_index_finger	red	vertical	high	constant	red	horizontal	low	constant
107.54499999999999	9.42	delay	n/a	n/a	n/a	n/a	n/a	n/a	n/a	n/a	n/a	n/a	n/a	n/a	n/a	n/a	n/a	n/a
116.96499999999999	3.9250000000000003	encoding	n/a	Novel	*EITHER*	**RED***	RIGHT*INDEX*	n/a	44.0	n/a	n/a	n/a	n/a	n/a	n/a	n/a	n/a	n/a
120.88999999999999	5.495	delay	n/a	n/a	n/a	n/a	n/a	n/a	n/a	n/a	n/a	n/a	n/a	n/a	n/a	n/a	n/a	n/a
126.38499999999999	2.355	trial	2297.0	Novel	*EITHER*	**RED***	RIGHT*INDEX*	Correct	44.0	right_index_finger	blue	horizontal	high	constant	red	vertical	high	alarm
128.73999999999998	1.57	ITI	n/a	n/a	n/a	n/a	n/a	n/a	n/a	n/a	n/a	n/a	n/a	n/a	n/a	n/a	n/a	n/a
130.30999999999997	2.355	trial	1762.0	Novel	*EITHER*	**RED***	RIGHT*INDEX*	Correct	44.0	right_index_finger	red	horizontal	high	alarm	red	horizontal	low	alarm
132.66499999999996	1.57	ITI	n/a	n/a	n/a	n/a	n/a	n/a	n/a	n/a	n/a	n/a	n/a	n/a	n/a	n/a	n/a	n/a
134.23499999999996	2.355	trial	1977.0	Novel	*EITHER*	**RED***	RIGHT*INDEX*	Correct	44.0	right_middle_finger	blue	vertical	low	alarm	blue	vertical	high	alarm
136.58999999999995	8.635	delay	n/a	n/a	n/a	n/a	n/a	n/a	n/a	n/a	n/a	n/a	n/a	n/a	n/a	n/a	n/a	n/a
145.22499999999994	3.9250000000000003	encoding	n/a	Novel	NEITHER*	VERTICAL	LEFT*MIDDLE*	n/a	61.0	n/a	n/a	n/a	n/a	n/a	n/a	n/a	n/a	n/a
149.14999999999995	1.57	delay	n/a	n/a	n/a	n/a	n/a	n/a	n/a	n/a	n/a	n/a	n/a	n/a	n/a	n/a	n/a	n/a
150.71999999999994	2.355	trial	2968.0	Novel	NEITHER*	VERTICAL	LEFT*MIDDLE*	Wrong	61.0	left_index_finger	red	horizontal	low	alarm	blue	horizontal	high	constant
153.07499999999993	1.57	ITI	n/a	n/a	n/a	n/a	n/a	n/a	n/a	n/a	n/a	n/a	n/a	n/a	n/a	n/a	n/a	n/a
154.64499999999992	2.355	trial	1780.0	Novel	NEITHER*	VERTICAL	LEFT*MIDDLE*	Wrong	61.0	left_index_finger	red	horizontal	low	alarm	red	horizontal	high	constant
156.99999999999991	1.57	ITI	n/a	n/a	n/a	n/a	n/a	n/a	n/a	n/a	n/a	n/a	n/a	n/a	n/a	n/a	n/a	n/a
158.5699999999999	2.355	trial	1813.0	Novel	NEITHER*	VERTICAL	LEFT*MIDDLE*	Wrong	61.0	left_index_finger	blue	horizontal	low	constant	blue	horizontal	low	alarm
160.9249999999999	12.56	delay	n/a	n/a	n/a	n/a	n/a	n/a	n/a	n/a	n/a	n/a	n/a	n/a	n/a	n/a	n/a	n/a
173.4849999999999	3.9250000000000003	encoding	n/a	Novel	NOT*BOTH	HI*PITCH	RIGHT*MIDDLE	n/a	19.0	n/a	n/a	n/a	n/a	n/a	n/a	n/a	n/a	n/a
177.4099999999999	3.14	delay	n/a	n/a	n/a	n/a	n/a	n/a	n/a	n/a	n/a	n/a	n/a	n/a	n/a	n/a	n/a	n/a
180.5499999999999	2.355	trial	2124.0	Novel	NOT*BOTH	HI*PITCH	RIGHT*MIDDLE	Correct	19.0	right_index_finger	red	vertical	high	alarm	blue	horizontal	high	alarm
182.9049999999999	1.57	ITI	n/a	n/a	n/a	n/a	n/a	n/a	n/a	n/a	n/a	n/a	n/a	n/a	n/a	n/a	n/a	n/a
184.47499999999988	2.355	trial	1789.0	Novel	NOT*BOTH	HI*PITCH	RIGHT*MIDDLE	Correct	19.0	right_index_finger	blue	vertical	high	alarm	blue	horizontal	high	alarm
186.82999999999987	1.57	ITI	n/a	n/a	n/a	n/a	n/a	n/a	n/a	n/a	n/a	n/a	n/a	n/a	n/a	n/a	n/a	n/a
188.39999999999986	2.355	trial	1835.0	Novel	NOT*BOTH	HI*PITCH	RIGHT*MIDDLE	Wrong	19.0	right_middle_finger	blue	vertical	high	constant	blue	vertical	high	constant
190.75499999999985	10.99	delay	n/a	n/a	n/a	n/a	n/a	n/a	n/a	n/a	n/a	n/a	n/a	n/a	n/a	n/a	n/a	n/a
201.74499999999986	3.9250000000000003	encoding	n/a	Novel	*EITHER*	VERTICAL	RIGHT*INDEX*	n/a	48.0	n/a	n/a	n/a	n/a	n/a	n/a	n/a	n/a	n/a
205.66999999999987	3.14	delay	n/a	n/a	n/a	n/a	n/a	n/a	n/a	n/a	n/a	n/a	n/a	n/a	n/a	n/a	n/a	n/a
208.80999999999986	2.355	trial	2732.0	Novel	*EITHER*	VERTICAL	RIGHT*INDEX*	Correct	48.0	right_middle_finger	red	horizontal	high	constant	red	horizontal	high	constant
211.16499999999985	1.57	ITI	n/a	n/a	n/a	n/a	n/a	n/a	n/a	n/a	n/a	n/a	n/a	n/a	n/a	n/a	n/a	n/a
212.73499999999984	2.355	trial	1681.0	Novel	*EITHER*	VERTICAL	RIGHT*INDEX*	Correct	48.0	right_middle_finger	red	horizontal	low	alarm	blue	horizontal	low	alarm
215.08999999999983	1.57	ITI	n/a	n/a	n/a	n/a	n/a	n/a	n/a	n/a	n/a	n/a	n/a	n/a	n/a	n/a	n/a	n/a
216.65999999999983	2.355	trial	1658.0	Novel	*EITHER*	VERTICAL	RIGHT*INDEX*	Correct	48.0	right_index_finger	red	horizontal	low	constant	blue	vertical	low	constant
219.01499999999982	10.99	delay	n/a	n/a	n/a	n/a	n/a	n/a	n/a	n/a	n/a	n/a	n/a	n/a	n/a	n/a	n/a	n/a
230.00499999999982	3.9250000000000003	encoding	n/a	Novel	NEITHER*	CONSTANT	*LEFT*INDEX*	n/a	54.0	n/a	n/a	n/a	n/a	n/a	n/a	n/a	n/a	n/a
233.92999999999984	2.355	delay	n/a	n/a	n/a	n/a	n/a	n/a	n/a	n/a	n/a	n/a	n/a	n/a	n/a	n/a	n/a	n/a
236.28499999999983	2.355	trial	2208.0	Novel	NEITHER*	CONSTANT	*LEFT*INDEX*	Wrong	54.0	left_index_finger	blue	horizontal	high	constant	blue	vertical	low	constant
238.63999999999982	1.57	ITI	n/a	n/a	n/a	n/a	n/a	n/a	n/a	n/a	n/a	n/a	n/a	n/a	n/a	n/a	n/a	n/a
240.2099999999998	2.355	trial	1762.0	Novel	NEITHER*	CONSTANT	*LEFT*INDEX*	Wrong	54.0	left_index_finger	blue	horizontal	high	constant	red	horizontal	high	constant
242.5649999999998	1.57	ITI	n/a	n/a	n/a	n/a	n/a	n/a	n/a	n/a	n/a	n/a	n/a	n/a	n/a	n/a	n/a	n/a
244.1349999999998	2.355	trial	2096.0	Novel	NEITHER*	CONSTANT	*LEFT*INDEX*	Wrong	54.0	left_middle_finger	blue	horizontal	low	alarm	red	horizontal	low	alarm
246.48999999999978	11.775	delay	n/a	n/a	n/a	n/a	n/a	n/a	n/a	n/a	n/a	n/a	n/a	n/a	n/a	n/a	n/a	n/a
258.26499999999976	3.9250000000000003	encoding	n/a	Novel	**BOTH**	**RED***	LEFT*MIDDLE*	n/a	9.0	n/a	n/a	n/a	n/a	n/a	n/a	n/a	n/a	n/a
262.18999999999977	1.57	delay	n/a	n/a	n/a	n/a	n/a	n/a	n/a	n/a	n/a	n/a	n/a	n/a	n/a	n/a	n/a	n/a
263.75999999999976	2.355	trial	1781.0	Novel	**BOTH**	**RED***	LEFT*MIDDLE*	Correct	9.0	left_index_finger	blue	vertical	low	constant	red	vertical	low	constant
266.1149999999998	1.57	ITI	n/a	n/a	n/a	n/a	n/a	n/a	n/a	n/a	n/a	n/a	n/a	n/a	n/a	n/a	n/a	n/a
267.6849999999998	2.355	trial	2245.0	Novel	**BOTH**	**RED***	LEFT*MIDDLE*	Correct	9.0	left_index_finger	blue	horizontal	low	constant	red	horizontal	low	alarm
270.0399999999998	1.57	ITI	n/a	n/a	n/a	n/a	n/a	n/a	n/a	n/a	n/a	n/a	n/a	n/a	n/a	n/a	n/a	n/a
271.6099999999998	2.355	trial	1894.0	Novel	**BOTH**	**RED***	LEFT*MIDDLE*	Correct	9.0	left_middle_finger	red	horizontal	high	alarm	red	vertical	low	alarm
273.9649999999998	12.56	delay	n/a	n/a	n/a	n/a	n/a	n/a	n/a	n/a	n/a	n/a	n/a	n/a	n/a	n/a	n/a	n/a
286.5249999999998	3.9250000000000003	encoding	n/a	Novel	NEITHER*	**RED***	RIGHT*MIDDLE	n/a	59.0	n/a	n/a	n/a	n/a	n/a	n/a	n/a	n/a	n/a
290.4499999999998	1.57	delay	n/a	n/a	n/a	n/a	n/a	n/a	n/a	n/a	n/a	n/a	n/a	n/a	n/a	n/a	n/a	n/a
292.0199999999998	2.355	trial	2166.0	Novel	NEITHER*	**RED***	RIGHT*MIDDLE	Wrong Hand	59.0	left_index_finger	blue	vertical	low	alarm	blue	horizontal	high	constant
294.37499999999983	1.57	ITI	n/a	n/a	n/a	n/a	n/a	n/a	n/a	n/a	n/a	n/a	n/a	n/a	n/a	n/a	n/a	n/a
295.9449999999998	2.355	trial	1977.0	Novel	NEITHER*	**RED***	RIGHT*MIDDLE	Wrong Hand	59.0	left_index_finger	blue	vertical	low	alarm	red	horizontal	low	constant
298.29999999999984	1.57	ITI	n/a	n/a	n/a	n/a	n/a	n/a	n/a	n/a	n/a	n/a	n/a	n/a	n/a	n/a	n/a	n/a
299.86999999999983	2.355	trial	2238.0	Novel	NEITHER*	**RED***	RIGHT*MIDDLE	Wrong Hand	59.0	left_middle_finger	red	horizontal	high	constant	red	vertical	low	constant
302.22499999999985	12.56	delay	n/a	n/a	n/a	n/a	n/a	n/a	n/a	n/a	n/a	n/a	n/a	n/a	n/a	n/a	n/a	n/a
314.78499999999985	3.9250000000000003	encoding	n/a	Novel	*EITHER*	HI*PITCH	RIGHT*MIDDLE	n/a	35.0	n/a	n/a	n/a	n/a	n/a	n/a	n/a	n/a	n/a
318.70999999999987	4.71	delay	n/a	n/a	n/a	n/a	n/a	n/a	n/a	n/a	n/a	n/a	n/a	n/a	n/a	n/a	n/a	n/a
323.41999999999985	2.355	trial	2174.0	Novel	*EITHER*	HI*PITCH	RIGHT*MIDDLE	Correct	35.0	right_index_finger	red	vertical	low	constant	blue	horizontal	low	constant
325.77499999999986	1.57	ITI	n/a	n/a	n/a	n/a	n/a	n/a	n/a	n/a	n/a	n/a	n/a	n/a	n/a	n/a	n/a	n/a
327.34499999999986	2.355	trial	1847.0	Novel	*EITHER*	HI*PITCH	RIGHT*MIDDLE	Correct	35.0	right_middle_finger	red	horizontal	low	alarm	blue	horizontal	high	alarm
329.6999999999999	1.57	ITI	n/a	n/a	n/a	n/a	n/a	n/a	n/a	n/a	n/a	n/a	n/a	n/a	n/a	n/a	n/a	n/a
331.26999999999987	2.355	trial	1813.0	Novel	*EITHER*	HI*PITCH	RIGHT*MIDDLE	Correct	35.0	right_index_finger	blue	vertical	low	alarm	blue	horizontal	low	constant
333.6249999999999	9.42	delay	n/a	n/a	n/a	n/a	n/a	n/a	n/a	n/a	n/a	n/a	n/a	n/a	n/a	n/a	n/a	n/a
343.0449999999999	3.9250000000000003	encoding	n/a	Novel	*EITHER*	CONSTANT	RIGHT*INDEX*	n/a	40.0	n/a	n/a	n/a	n/a	n/a	n/a	n/a	n/a	n/a
346.9699999999999	3.925	delay	n/a	n/a	n/a	n/a	n/a	n/a	n/a	n/a	n/a	n/a	n/a	n/a	n/a	n/a	n/a	n/a
350.8949999999999	2.355	trial	2326.0	Novel	*EITHER*	CONSTANT	RIGHT*INDEX*	Wrong	40.0	right_index_finger	blue	vertical	low	alarm	blue	vertical	low	alarm
353.24999999999994	1.57	ITI	n/a	n/a	n/a	n/a	n/a	n/a	n/a	n/a	n/a	n/a	n/a	n/a	n/a	n/a	n/a	n/a
354.81999999999994	2.355	trial	1793.0	Novel	*EITHER*	CONSTANT	RIGHT*INDEX*	Wrong	40.0	right_index_finger	blue	vertical	low	alarm	blue	horizontal	low	alarm
357.17499999999995	1.57	ITI	n/a	n/a	n/a	n/a	n/a	n/a	n/a	n/a	n/a	n/a	n/a	n/a	n/a	n/a	n/a	n/a
358.74499999999995	2.355	trial	1973.0	Novel	*EITHER*	CONSTANT	RIGHT*INDEX*	Correct	40.0	right_index_finger	blue	vertical	high	constant	blue	vertical	high	constant
361.09999999999997	10.205	delay	n/a	n/a	n/a	n/a	n/a	n/a	n/a	n/a	n/a	n/a	n/a	n/a	n/a	n/a	n/a	n/a
371.30499999999995	3.9250000000000003	encoding	n/a	Novel	NOT*BOTH	**RED***	RIGHT*MIDDLE	n/a	27.0	n/a	n/a	n/a	n/a	n/a	n/a	n/a	n/a	n/a
375.22999999999996	3.925	delay	n/a	n/a	n/a	n/a	n/a	n/a	n/a	n/a	n/a	n/a	n/a	n/a	n/a	n/a	n/a	n/a
379.155	2.355	trial	2671.0	Novel	NOT*BOTH	**RED***	RIGHT*MIDDLE	Correct	27.0	right_middle_finger	red	vertical	low	alarm	blue	vertical	low	alarm
381.51	1.57	ITI	n/a	n/a	n/a	n/a	n/a	n/a	n/a	n/a	n/a	n/a	n/a	n/a	n/a	n/a	n/a	n/a
383.08	2.355	trial	2001.0	Novel	NOT*BOTH	**RED***	RIGHT*MIDDLE	Correct	27.0	right_index_finger	red	horizontal	high	alarm	red	horizontal	high	alarm
385.435	1.57	ITI	n/a	n/a	n/a	n/a	n/a	n/a	n/a	n/a	n/a	n/a	n/a	n/a	n/a	n/a	n/a	n/a
387.005	2.355	trial	1783.0	Novel	NOT*BOTH	**RED***	RIGHT*MIDDLE	Wrong	27.0	right_middle_finger	red	vertical	low	constant	red	horizontal	high	constant
389.36	10.205	delay	n/a	n/a	n/a	n/a	n/a	n/a	n/a	n/a	n/a	n/a	n/a	n/a	n/a	n/a	n/a	n/a
399.565	3.9250000000000003	encoding	n/a	Prac	*EITHER*	HI*PITCH	*LEFT*INDEX*	n/a	34.0	n/a	n/a	n/a	n/a	n/a	n/a	n/a	n/a	n/a
403.49	2.355	delay	n/a	n/a	n/a	n/a	n/a	n/a	n/a	n/a	n/a	n/a	n/a	n/a	n/a	n/a	n/a	n/a
405.845	2.355	trial	2160.0	Prac	*EITHER*	HI*PITCH	*LEFT*INDEX*	Correct	34.0	left_middle_finger	blue	horizontal	low	constant	blue	horizontal	low	alarm
408.20000000000005	1.57	ITI	n/a	n/a	n/a	n/a	n/a	n/a	n/a	n/a	n/a	n/a	n/a	n/a	n/a	n/a	n/a	n/a
409.77000000000004	2.355	trial	1789.0	Prac	*EITHER*	HI*PITCH	*LEFT*INDEX*	Correct	34.0	left_index_finger	blue	vertical	high	alarm	red	horizontal	high	alarm
412.12500000000006	1.57	ITI	n/a	n/a	n/a	n/a	n/a	n/a	n/a	n/a	n/a	n/a	n/a	n/a	n/a	n/a	n/a	n/a
413.69500000000005	2.355	trial	1982.0	Prac	*EITHER*	HI*PITCH	*LEFT*INDEX*	Correct	34.0	left_index_finger	red	horizontal	high	constant	blue	vertical	low	alarm
416.05000000000007	11.775	delay	n/a	n/a	n/a	n/a	n/a	n/a	n/a	n/a	n/a	n/a	n/a	n/a	n/a	n/a	n/a	n/a
427.82500000000005	3.9250000000000003	encoding	n/a	Novel	*EITHER*	**RED***	*LEFT*INDEX*	n/a	42.0	n/a	n/a	n/a	n/a	n/a	n/a	n/a	n/a	n/a
431.75000000000006	3.925	delay	n/a	n/a	n/a	n/a	n/a	n/a	n/a	n/a	n/a	n/a	n/a	n/a	n/a	n/a	n/a	n/a
435.67500000000007	2.355	trial	2127.0	Novel	*EITHER*	**RED***	*LEFT*INDEX*	Correct	42.0	left_middle_finger	blue	vertical	high	alarm	blue	vertical	low	constant
438.0300000000001	1.57	ITI	n/a	n/a	n/a	n/a	n/a	n/a	n/a	n/a	n/a	n/a	n/a	n/a	n/a	n/a	n/a	n/a
439.6000000000001	2.355	trial	1928.0	Novel	*EITHER*	**RED***	*LEFT*INDEX*	Correct	42.0	left_index_finger	blue	vertical	low	alarm	red	vertical	low	constant
441.9550000000001	1.57	ITI	n/a	n/a	n/a	n/a	n/a	n/a	n/a	n/a	n/a	n/a	n/a	n/a	n/a	n/a	n/a	n/a
443.5250000000001	2.355	trial	1855.0	Novel	*EITHER*	**RED***	*LEFT*INDEX*	Correct	42.0	left_middle_finger	blue	vertical	high	constant	blue	vertical	low	alarm
445.8800000000001	10.205	delay	n/a	n/a	n/a	n/a	n/a	n/a	n/a	n/a	n/a	n/a	n/a	n/a	n/a	n/a	n/a	n/a
