onset	duration	task_event	rt_in_ms	task_novelty	logic_rule	sensory_rule	motor_rule	performance	task_id	motor_response	stimulus1_color	stimulus1_orientation	stimulus1_pitch	stimulus1_continuity	stimulus2_color	stimulus2_orientation	stimulus2_pitch	stimulus2_continuity
0.0	3.9250000000000003	delay	n/a	n/a	n/a	n/a	n/a	n/a	n/a	n/a	n/a	n/a	n/a	n/a	n/a	n/a	n/a	n/a
3.9250000000000003	3.9250000000000003	encoding	n/a	Novel	NOT*BOTH	CONSTANT	*LEFT*INDEX*	n/a	22.0	n/a	n/a	n/a	n/a	n/a	n/a	n/a	n/a	n/a
7.8500000000000005	1.57	delay	n/a	n/a	n/a	n/a	n/a	n/a	n/a	n/a	n/a	n/a	n/a	n/a	n/a	n/a	n/a	n/a
9.42	2.355	trial	2307.0	Novel	NOT*BOTH	CONSTANT	*LEFT*INDEX*	Correct	22.0	left_middle_finger	red	vertical	low	constant	blue	horizontal	high	constant
11.775	1.57	ITI	n/a	n/a	n/a	n/a	n/a	n/a	n/a	n/a	n/a	n/a	n/a	n/a	n/a	n/a	n/a	n/a
13.345	2.355	trial	2124.0	Novel	NOT*BOTH	CONSTANT	*LEFT*INDEX*	Correct	22.0	left_middle_finger	red	horizontal	high	constant	red	vertical	high	constant
15.700000000000001	1.57	ITI	n/a	n/a	n/a	n/a	n/a	n/a	n/a	n/a	n/a	n/a	n/a	n/a	n/a	n/a	n/a	n/a
17.27	2.355	trial	1945.0	Novel	NOT*BOTH	CONSTANT	*LEFT*INDEX*	Correct	22.0	left_middle_finger	red	horizontal	low	constant	blue	horizontal	low	constant
19.625	12.56	delay	n/a	n/a	n/a	n/a	n/a	n/a	n/a	n/a	n/a	n/a	n/a	n/a	n/a	n/a	n/a	n/a
32.185	3.9250000000000003	encoding	n/a	Novel	NOT*BOTH	CONSTANT	RIGHT*MIDDLE	n/a	23.0	n/a	n/a	n/a	n/a	n/a	n/a	n/a	n/a	n/a
36.11	4.71	delay	n/a	n/a	n/a	n/a	n/a	n/a	n/a	n/a	n/a	n/a	n/a	n/a	n/a	n/a	n/a	n/a
40.82	2.355	trial	2048.0	Novel	NOT*BOTH	CONSTANT	RIGHT*MIDDLE	Correct	23.0	right_index_finger	red	horizontal	low	constant	red	horizontal	high	constant
43.175	1.57	ITI	n/a	n/a	n/a	n/a	n/a	n/a	n/a	n/a	n/a	n/a	n/a	n/a	n/a	n/a	n/a	n/a
44.745	2.355	trial	1876.0	Novel	NOT*BOTH	CONSTANT	RIGHT*MIDDLE	Correct	23.0	right_index_finger	blue	horizontal	low	constant	blue	vertical	low	constant
47.099999999999994	1.57	ITI	n/a	n/a	n/a	n/a	n/a	n/a	n/a	n/a	n/a	n/a	n/a	n/a	n/a	n/a	n/a	n/a
48.669999999999995	2.355	trial	653.0	Novel	NOT*BOTH	CONSTANT	RIGHT*MIDDLE	Correct	23.0	right_middle_finger	blue	vertical	high	alarm	red	horizontal	low	constant
51.02499999999999	9.42	delay	n/a	n/a	n/a	n/a	n/a	n/a	n/a	n/a	n/a	n/a	n/a	n/a	n/a	n/a	n/a	n/a
60.44499999999999	3.9250000000000003	encoding	n/a	Novel	*EITHER*	HI*PITCH	*LEFT*INDEX*	n/a	34.0	n/a	n/a	n/a	n/a	n/a	n/a	n/a	n/a	n/a
64.36999999999999	5.495	delay	n/a	n/a	n/a	n/a	n/a	n/a	n/a	n/a	n/a	n/a	n/a	n/a	n/a	n/a	n/a	n/a
69.865	2.355	trial	2062.0	Novel	*EITHER*	HI*PITCH	*LEFT*INDEX*	Correct	34.0	left_middle_finger	blue	horizontal	low	alarm	blue	vertical	low	alarm
72.22	1.57	ITI	n/a	n/a	n/a	n/a	n/a	n/a	n/a	n/a	n/a	n/a	n/a	n/a	n/a	n/a	n/a	n/a
73.78999999999999	2.355	trial	1973.0	Novel	*EITHER*	HI*PITCH	*LEFT*INDEX*	Correct	34.0	left_index_finger	red	horizontal	low	alarm	red	horizontal	high	constant
76.145	1.57	ITI	n/a	n/a	n/a	n/a	n/a	n/a	n/a	n/a	n/a	n/a	n/a	n/a	n/a	n/a	n/a	n/a
77.71499999999999	2.355	trial	1721.0	Novel	*EITHER*	HI*PITCH	*LEFT*INDEX*	Correct	34.0	left_middle_finger	red	vertical	low	constant	blue	vertical	low	constant
80.07	8.635	delay	n/a	n/a	n/a	n/a	n/a	n/a	n/a	n/a	n/a	n/a	n/a	n/a	n/a	n/a	n/a	n/a
88.705	3.9250000000000003	encoding	n/a	Novel	**BOTH**	CONSTANT	LEFT*MIDDLE*	n/a	5.0	n/a	n/a	n/a	n/a	n/a	n/a	n/a	n/a	n/a
92.63	3.14	delay	n/a	n/a	n/a	n/a	n/a	n/a	n/a	n/a	n/a	n/a	n/a	n/a	n/a	n/a	n/a	n/a
95.77	2.355	trial	669.0	Novel	**BOTH**	CONSTANT	LEFT*MIDDLE*	Correct	5.0	left_index_finger	red	vertical	high	alarm	red	horizontal	low	constant
98.125	1.57	ITI	n/a	n/a	n/a	n/a	n/a	n/a	n/a	n/a	n/a	n/a	n/a	n/a	n/a	n/a	n/a	n/a
99.695	2.355	trial	2063.0	Novel	**BOTH**	CONSTANT	LEFT*MIDDLE*	Correct	5.0	left_middle_finger	red	vertical	high	constant	red	horizontal	low	constant
102.05	1.57	ITI	n/a	n/a	n/a	n/a	n/a	n/a	n/a	n/a	n/a	n/a	n/a	n/a	n/a	n/a	n/a	n/a
103.61999999999999	2.355	trial	1881.0	Novel	**BOTH**	CONSTANT	LEFT*MIDDLE*	Correct	5.0	left_middle_finger	red	horizontal	high	constant	blue	horizontal	high	constant
105.975	10.99	delay	n/a	n/a	n/a	n/a	n/a	n/a	n/a	n/a	n/a	n/a	n/a	n/a	n/a	n/a	n/a	n/a
116.96499999999999	3.9250000000000003	encoding	n/a	Novel	*EITHER*	CONSTANT	*LEFT*INDEX*	n/a	38.0	n/a	n/a	n/a	n/a	n/a	n/a	n/a	n/a	n/a
120.88999999999999	3.925	delay	n/a	n/a	n/a	n/a	n/a	n/a	n/a	n/a	n/a	n/a	n/a	n/a	n/a	n/a	n/a	n/a
124.81499999999998	2.355	trial	2308.0	Novel	*EITHER*	CONSTANT	*LEFT*INDEX*	Correct	38.0	left_index_finger	blue	horizontal	low	alarm	red	vertical	high	constant
127.16999999999999	1.57	ITI	n/a	n/a	n/a	n/a	n/a	n/a	n/a	n/a	n/a	n/a	n/a	n/a	n/a	n/a	n/a	n/a
128.73999999999998	2.355	trial	2204.0	Novel	*EITHER*	CONSTANT	*LEFT*INDEX*	Correct	38.0	left_index_finger	blue	vertical	low	alarm	red	horizontal	low	constant
131.09499999999997	1.57	ITI	n/a	n/a	n/a	n/a	n/a	n/a	n/a	n/a	n/a	n/a	n/a	n/a	n/a	n/a	n/a	n/a
132.66499999999996	2.355	trial	1968.0	Novel	*EITHER*	CONSTANT	*LEFT*INDEX*	Correct	38.0	left_middle_finger	blue	vertical	low	alarm	blue	vertical	low	alarm
135.01999999999995	10.205	delay	n/a	n/a	n/a	n/a	n/a	n/a	n/a	n/a	n/a	n/a	n/a	n/a	n/a	n/a	n/a	n/a
145.22499999999997	3.9250000000000003	encoding	n/a	Novel	NEITHER*	CONSTANT	*LEFT*INDEX*	n/a	54.0	n/a	n/a	n/a	n/a	n/a	n/a	n/a	n/a	n/a
149.14999999999998	4.71	delay	n/a	n/a	n/a	n/a	n/a	n/a	n/a	n/a	n/a	n/a	n/a	n/a	n/a	n/a	n/a	n/a
153.85999999999999	2.355	trial	2599.0	Novel	NEITHER*	CONSTANT	*LEFT*INDEX*	Correct	54.0	left_index_finger	red	horizontal	high	alarm	red	vertical	low	alarm
156.21499999999997	1.57	ITI	n/a	n/a	n/a	n/a	n/a	n/a	n/a	n/a	n/a	n/a	n/a	n/a	n/a	n/a	n/a	n/a
157.78499999999997	2.355	trial	2061.0	Novel	NEITHER*	CONSTANT	*LEFT*INDEX*	Correct	54.0	left_index_finger	red	horizontal	high	alarm	red	horizontal	low	alarm
160.13999999999996	1.57	ITI	n/a	n/a	n/a	n/a	n/a	n/a	n/a	n/a	n/a	n/a	n/a	n/a	n/a	n/a	n/a	n/a
161.70999999999995	2.355	trial	995.0	Novel	NEITHER*	CONSTANT	*LEFT*INDEX*	Correct	54.0	left_middle_finger	blue	horizontal	low	constant	red	vertical	low	alarm
164.06499999999994	9.42	delay	n/a	n/a	n/a	n/a	n/a	n/a	n/a	n/a	n/a	n/a	n/a	n/a	n/a	n/a	n/a	n/a
173.48499999999993	3.9250000000000003	encoding	n/a	Novel	NEITHER*	**RED***	*LEFT*INDEX*	n/a	58.0	n/a	n/a	n/a	n/a	n/a	n/a	n/a	n/a	n/a
177.40999999999994	6.28	delay	n/a	n/a	n/a	n/a	n/a	n/a	n/a	n/a	n/a	n/a	n/a	n/a	n/a	n/a	n/a	n/a
183.68999999999994	2.355	trial	1952.0	Novel	NEITHER*	**RED***	*LEFT*INDEX*	Correct	58.0	left_middle_finger	blue	horizontal	high	alarm	red	horizontal	low	alarm
186.04499999999993	1.57	ITI	n/a	n/a	n/a	n/a	n/a	n/a	n/a	n/a	n/a	n/a	n/a	n/a	n/a	n/a	n/a	n/a
187.61499999999992	2.355	trial	1760.0	Novel	NEITHER*	**RED***	*LEFT*INDEX*	Correct	58.0	left_index_finger	blue	vertical	high	alarm	blue	horizontal	high	constant
189.9699999999999	1.57	ITI	n/a	n/a	n/a	n/a	n/a	n/a	n/a	n/a	n/a	n/a	n/a	n/a	n/a	n/a	n/a	n/a
191.5399999999999	2.355	trial	1762.0	Novel	NEITHER*	**RED***	*LEFT*INDEX*	Correct	58.0	left_middle_finger	blue	horizontal	low	constant	red	horizontal	high	alarm
193.8949999999999	7.85	delay	n/a	n/a	n/a	n/a	n/a	n/a	n/a	n/a	n/a	n/a	n/a	n/a	n/a	n/a	n/a	n/a
201.7449999999999	3.9250000000000003	encoding	n/a	Novel	**BOTH**	CONSTANT	*LEFT*INDEX*	n/a	6.0	n/a	n/a	n/a	n/a	n/a	n/a	n/a	n/a	n/a
205.6699999999999	3.925	delay	n/a	n/a	n/a	n/a	n/a	n/a	n/a	n/a	n/a	n/a	n/a	n/a	n/a	n/a	n/a	n/a
209.5949999999999	2.355	trial	2185.0	Novel	**BOTH**	CONSTANT	*LEFT*INDEX*	Correct	6.0	left_index_finger	red	vertical	high	constant	blue	horizontal	low	constant
211.9499999999999	1.57	ITI	n/a	n/a	n/a	n/a	n/a	n/a	n/a	n/a	n/a	n/a	n/a	n/a	n/a	n/a	n/a	n/a
213.5199999999999	2.355	trial	1088.0	Novel	**BOTH**	CONSTANT	*LEFT*INDEX*	Correct	6.0	left_middle_finger	blue	vertical	high	alarm	red	vertical	low	alarm
215.8749999999999	1.57	ITI	n/a	n/a	n/a	n/a	n/a	n/a	n/a	n/a	n/a	n/a	n/a	n/a	n/a	n/a	n/a	n/a
217.44499999999988	2.355	trial	1795.0	Novel	**BOTH**	CONSTANT	*LEFT*INDEX*	Correct	6.0	left_index_finger	red	horizontal	low	constant	red	horizontal	high	constant
219.79999999999987	10.205	delay	n/a	n/a	n/a	n/a	n/a	n/a	n/a	n/a	n/a	n/a	n/a	n/a	n/a	n/a	n/a	n/a
230.00499999999988	3.9250000000000003	encoding	n/a	Novel	NEITHER*	HI*PITCH	RIGHT*MIDDLE	n/a	51.0	n/a	n/a	n/a	n/a	n/a	n/a	n/a	n/a	n/a
233.9299999999999	3.925	delay	n/a	n/a	n/a	n/a	n/a	n/a	n/a	n/a	n/a	n/a	n/a	n/a	n/a	n/a	n/a	n/a
237.8549999999999	2.355	trial	3005.0	Novel	NEITHER*	HI*PITCH	RIGHT*MIDDLE	Wrong	51.0	right_index_finger	red	horizontal	low	constant	blue	horizontal	low	constant
240.2099999999999	1.57	ITI	n/a	n/a	n/a	n/a	n/a	n/a	n/a	n/a	n/a	n/a	n/a	n/a	n/a	n/a	n/a	n/a
241.7799999999999	2.355	trial	1997.0	Novel	NEITHER*	HI*PITCH	RIGHT*MIDDLE	Correct	51.0	right_middle_finger	red	horizontal	low	alarm	red	horizontal	low	alarm
244.13499999999988	1.57	ITI	n/a	n/a	n/a	n/a	n/a	n/a	n/a	n/a	n/a	n/a	n/a	n/a	n/a	n/a	n/a	n/a
245.70499999999987	2.355	trial	1536.0	Novel	NEITHER*	HI*PITCH	RIGHT*MIDDLE	Correct	51.0	right_index_finger	blue	horizontal	high	constant	blue	vertical	low	constant
248.05999999999986	10.205	delay	n/a	n/a	n/a	n/a	n/a	n/a	n/a	n/a	n/a	n/a	n/a	n/a	n/a	n/a	n/a	n/a
258.2649999999999	3.9250000000000003	encoding	n/a	Novel	NOT*BOTH	HI*PITCH	RIGHT*INDEX*	n/a	20.0	n/a	n/a	n/a	n/a	n/a	n/a	n/a	n/a	n/a
262.1899999999999	6.28	delay	n/a	n/a	n/a	n/a	n/a	n/a	n/a	n/a	n/a	n/a	n/a	n/a	n/a	n/a	n/a	n/a
268.46999999999986	2.355	trial	2042.0	Novel	NOT*BOTH	HI*PITCH	RIGHT*INDEX*	Correct	20.0	right_middle_finger	red	horizontal	high	constant	blue	horizontal	high	constant
270.8249999999999	1.57	ITI	n/a	n/a	n/a	n/a	n/a	n/a	n/a	n/a	n/a	n/a	n/a	n/a	n/a	n/a	n/a	n/a
272.39499999999987	2.355	trial	918.0	Novel	NOT*BOTH	HI*PITCH	RIGHT*INDEX*	Correct	20.0	right_index_finger	blue	horizontal	low	alarm	blue	vertical	low	alarm
274.7499999999999	1.57	ITI	n/a	n/a	n/a	n/a	n/a	n/a	n/a	n/a	n/a	n/a	n/a	n/a	n/a	n/a	n/a	n/a
276.3199999999999	2.355	trial	983.0	Novel	NOT*BOTH	HI*PITCH	RIGHT*INDEX*	Correct	20.0	right_index_finger	blue	horizontal	low	alarm	blue	horizontal	low	constant
278.6749999999999	7.85	delay	n/a	n/a	n/a	n/a	n/a	n/a	n/a	n/a	n/a	n/a	n/a	n/a	n/a	n/a	n/a	n/a
286.5249999999999	3.9250000000000003	encoding	n/a	Novel	**BOTH**	VERTICAL	RIGHT*INDEX*	n/a	16.0	n/a	n/a	n/a	n/a	n/a	n/a	n/a	n/a	n/a
290.44999999999993	2.355	delay	n/a	n/a	n/a	n/a	n/a	n/a	n/a	n/a	n/a	n/a	n/a	n/a	n/a	n/a	n/a	n/a
292.80499999999995	2.355	trial	2474.0	Novel	**BOTH**	VERTICAL	RIGHT*INDEX*	Correct	16.0	right_middle_finger	blue	horizontal	high	alarm	red	horizontal	high	constant
295.15999999999997	1.57	ITI	n/a	n/a	n/a	n/a	n/a	n/a	n/a	n/a	n/a	n/a	n/a	n/a	n/a	n/a	n/a	n/a
296.72999999999996	2.355	trial	1650.0	Novel	**BOTH**	VERTICAL	RIGHT*INDEX*	Correct	16.0	right_index_finger	blue	vertical	low	constant	red	vertical	high	alarm
299.085	1.57	ITI	n/a	n/a	n/a	n/a	n/a	n/a	n/a	n/a	n/a	n/a	n/a	n/a	n/a	n/a	n/a	n/a
300.655	2.355	trial	550.0	Novel	**BOTH**	VERTICAL	RIGHT*INDEX*	Correct	16.0	right_middle_finger	blue	horizontal	high	constant	blue	vertical	high	constant
303.01	11.775	delay	n/a	n/a	n/a	n/a	n/a	n/a	n/a	n/a	n/a	n/a	n/a	n/a	n/a	n/a	n/a	n/a
314.78499999999997	3.9250000000000003	encoding	n/a	Novel	**BOTH**	**RED***	*LEFT*INDEX*	n/a	10.0	n/a	n/a	n/a	n/a	n/a	n/a	n/a	n/a	n/a
318.71	6.28	delay	n/a	n/a	n/a	n/a	n/a	n/a	n/a	n/a	n/a	n/a	n/a	n/a	n/a	n/a	n/a	n/a
324.98999999999995	2.355	trial	591.0	Novel	**BOTH**	**RED***	*LEFT*INDEX*	Correct	10.0	left_middle_finger	blue	vertical	high	alarm	blue	horizontal	high	constant
327.34499999999997	1.57	ITI	n/a	n/a	n/a	n/a	n/a	n/a	n/a	n/a	n/a	n/a	n/a	n/a	n/a	n/a	n/a	n/a
328.91499999999996	2.355	trial	694.0	Novel	**BOTH**	**RED***	*LEFT*INDEX*	Correct	10.0	left_middle_finger	blue	vertical	low	alarm	blue	horizontal	low	constant
331.27	1.57	ITI	n/a	n/a	n/a	n/a	n/a	n/a	n/a	n/a	n/a	n/a	n/a	n/a	n/a	n/a	n/a	n/a
332.84	2.355	trial	1647.0	Novel	**BOTH**	**RED***	*LEFT*INDEX*	Correct	10.0	left_index_finger	red	vertical	low	constant	red	horizontal	low	constant
335.195	7.85	delay	n/a	n/a	n/a	n/a	n/a	n/a	n/a	n/a	n/a	n/a	n/a	n/a	n/a	n/a	n/a	n/a
343.045	3.9250000000000003	encoding	n/a	Novel	NEITHER*	CONSTANT	LEFT*MIDDLE*	n/a	53.0	n/a	n/a	n/a	n/a	n/a	n/a	n/a	n/a	n/a
346.97	6.28	delay	n/a	n/a	n/a	n/a	n/a	n/a	n/a	n/a	n/a	n/a	n/a	n/a	n/a	n/a	n/a	n/a
353.25	2.355	trial	1937.0	Novel	NEITHER*	CONSTANT	LEFT*MIDDLE*	Correct	53.0	left_index_finger	red	horizontal	high	constant	red	horizontal	high	constant
355.605	1.57	ITI	n/a	n/a	n/a	n/a	n/a	n/a	n/a	n/a	n/a	n/a	n/a	n/a	n/a	n/a	n/a	n/a
357.175	2.355	trial	2434.0	Novel	NEITHER*	CONSTANT	LEFT*MIDDLE*	Correct	53.0	left_index_finger	red	vertical	high	alarm	red	horizontal	high	constant
359.53000000000003	1.57	ITI	n/a	n/a	n/a	n/a	n/a	n/a	n/a	n/a	n/a	n/a	n/a	n/a	n/a	n/a	n/a	n/a
361.1	2.355	trial	2111.0	Novel	NEITHER*	CONSTANT	LEFT*MIDDLE*	Correct	53.0	left_middle_finger	blue	horizontal	high	alarm	red	horizontal	low	alarm
363.45500000000004	7.85	delay	n/a	n/a	n/a	n/a	n/a	n/a	n/a	n/a	n/a	n/a	n/a	n/a	n/a	n/a	n/a	n/a
371.30500000000006	3.9250000000000003	encoding	n/a	Novel	*EITHER*	CONSTANT	RIGHT*MIDDLE	n/a	39.0	n/a	n/a	n/a	n/a	n/a	n/a	n/a	n/a	n/a
375.2300000000001	4.71	delay	n/a	n/a	n/a	n/a	n/a	n/a	n/a	n/a	n/a	n/a	n/a	n/a	n/a	n/a	n/a	n/a
379.94000000000005	2.355	trial	1725.0	Novel	*EITHER*	CONSTANT	RIGHT*MIDDLE	Wrong	39.0	right_middle_finger	red	vertical	low	alarm	red	vertical	low	alarm
382.2950000000001	1.57	ITI	n/a	n/a	n/a	n/a	n/a	n/a	n/a	n/a	n/a	n/a	n/a	n/a	n/a	n/a	n/a	n/a
383.86500000000007	2.355	trial	1188.0	Novel	*EITHER*	CONSTANT	RIGHT*MIDDLE	Wrong	39.0	right_middle_finger	red	horizontal	high	alarm	red	vertical	low	alarm
386.2200000000001	1.57	ITI	n/a	n/a	n/a	n/a	n/a	n/a	n/a	n/a	n/a	n/a	n/a	n/a	n/a	n/a	n/a	n/a
387.7900000000001	2.355	trial	0.0	Novel	*EITHER*	CONSTANT	RIGHT*MIDDLE	No Response	39.0	no_response	red	vertical	low	alarm	red	vertical	low	alarm
390.1450000000001	9.42	delay	n/a	n/a	n/a	n/a	n/a	n/a	n/a	n/a	n/a	n/a	n/a	n/a	n/a	n/a	n/a	n/a
399.5650000000001	3.9250000000000003	encoding	n/a	Novel	NEITHER*	VERTICAL	*LEFT*INDEX*	n/a	62.0	n/a	n/a	n/a	n/a	n/a	n/a	n/a	n/a	n/a
403.4900000000001	5.495	delay	n/a	n/a	n/a	n/a	n/a	n/a	n/a	n/a	n/a	n/a	n/a	n/a	n/a	n/a	n/a	n/a
408.9850000000001	2.355	trial	2728.0	Novel	NEITHER*	VERTICAL	*LEFT*INDEX*	Correct	62.0	left_index_finger	red	horizontal	high	constant	blue	horizontal	high	constant
411.34000000000015	1.57	ITI	n/a	n/a	n/a	n/a	n/a	n/a	n/a	n/a	n/a	n/a	n/a	n/a	n/a	n/a	n/a	n/a
412.91000000000014	2.355	trial	1260.0	Novel	NEITHER*	VERTICAL	*LEFT*INDEX*	Correct	62.0	left_middle_finger	red	vertical	high	constant	red	vertical	low	alarm
415.26500000000016	1.57	ITI	n/a	n/a	n/a	n/a	n/a	n/a	n/a	n/a	n/a	n/a	n/a	n/a	n/a	n/a	n/a	n/a
416.83500000000015	2.355	trial	0.0	Novel	NEITHER*	VERTICAL	*LEFT*INDEX*	No Response	62.0	no_response	red	vertical	high	constant	blue	horizontal	high	alarm
419.19000000000017	8.635	delay	n/a	n/a	n/a	n/a	n/a	n/a	n/a	n/a	n/a	n/a	n/a	n/a	n/a	n/a	n/a	n/a
427.82500000000016	3.9250000000000003	encoding	n/a	Novel	NOT*BOTH	**RED***	RIGHT*MIDDLE	n/a	27.0	n/a	n/a	n/a	n/a	n/a	n/a	n/a	n/a	n/a
431.75000000000017	3.14	delay	n/a	n/a	n/a	n/a	n/a	n/a	n/a	n/a	n/a	n/a	n/a	n/a	n/a	n/a	n/a	n/a
434.89000000000016	2.355	trial	2078.0	Novel	NOT*BOTH	**RED***	RIGHT*MIDDLE	Correct	27.0	right_middle_finger	red	vertical	low	alarm	blue	vertical	low	alarm
437.2450000000002	1.57	ITI	n/a	n/a	n/a	n/a	n/a	n/a	n/a	n/a	n/a	n/a	n/a	n/a	n/a	n/a	n/a	n/a
438.81500000000017	2.355	trial	1941.0	Novel	NOT*BOTH	**RED***	RIGHT*MIDDLE	Correct	27.0	right_index_finger	red	vertical	high	alarm	red	vertical	low	alarm
441.1700000000002	1.57	ITI	n/a	n/a	n/a	n/a	n/a	n/a	n/a	n/a	n/a	n/a	n/a	n/a	n/a	n/a	n/a	n/a
442.7400000000002	2.355	trial	941.0	Novel	NOT*BOTH	**RED***	RIGHT*MIDDLE	Correct	27.0	right_middle_finger	blue	vertical	low	alarm	blue	horizontal	high	alarm
445.0950000000002	10.99	delay	n/a	n/a	n/a	n/a	n/a	n/a	n/a	n/a	n/a	n/a	n/a	n/a	n/a	n/a	n/a	n/a
