onset	duration	task_event	rt_in_ms	task_novelty	logic_rule	sensory_rule	motor_rule	performance	task_id	motor_response	stimulus1_color	stimulus1_orientation	stimulus1_pitch	stimulus1_continuity	stimulus2_color	stimulus2_orientation	stimulus2_pitch	stimulus2_continuity
0.0	3.9250000000000003	delay	n/a	n/a	n/a	n/a	n/a	n/a	n/a	n/a	n/a	n/a	n/a	n/a	n/a	n/a	n/a	n/a
3.9250000000000003	3.9250000000000003	encoding	n/a	Novel	NEITHER*	**RED***	LEFT*MIDDLE*	n/a	57.0	n/a	n/a	n/a	n/a	n/a	n/a	n/a	n/a	n/a
7.8500000000000005	5.495	delay	n/a	n/a	n/a	n/a	n/a	n/a	n/a	n/a	n/a	n/a	n/a	n/a	n/a	n/a	n/a	n/a
13.345	2.355	trial	1808.0	Novel	NEITHER*	**RED***	LEFT*MIDDLE*	Wrong	57.0	left_index_finger	blue	horizontal	high	constant	blue	vertical	high	constant
15.700000000000001	1.57	ITI	n/a	n/a	n/a	n/a	n/a	n/a	n/a	n/a	n/a	n/a	n/a	n/a	n/a	n/a	n/a	n/a
17.27	2.355	trial	1757.0	Novel	NEITHER*	**RED***	LEFT*MIDDLE*	Correct	57.0	left_index_finger	red	horizontal	low	constant	blue	vertical	low	constant
19.625	1.57	ITI	n/a	n/a	n/a	n/a	n/a	n/a	n/a	n/a	n/a	n/a	n/a	n/a	n/a	n/a	n/a	n/a
21.195	2.355	trial	695.0	Novel	NEITHER*	**RED***	LEFT*MIDDLE*	Correct	57.0	left_middle_finger	blue	vertical	low	alarm	blue	horizontal	low	alarm
23.55	8.635	delay	n/a	n/a	n/a	n/a	n/a	n/a	n/a	n/a	n/a	n/a	n/a	n/a	n/a	n/a	n/a	n/a
32.185	3.9250000000000003	encoding	n/a	Novel	NEITHER*	HI*PITCH	LEFT*MIDDLE*	n/a	49.0	n/a	n/a	n/a	n/a	n/a	n/a	n/a	n/a	n/a
36.11	1.57	delay	n/a	n/a	n/a	n/a	n/a	n/a	n/a	n/a	n/a	n/a	n/a	n/a	n/a	n/a	n/a	n/a
37.68	2.355	trial	2077.0	Novel	NEITHER*	HI*PITCH	LEFT*MIDDLE*	Correct	49.0	left_index_finger	blue	horizontal	low	constant	blue	horizontal	high	constant
40.035	1.57	ITI	n/a	n/a	n/a	n/a	n/a	n/a	n/a	n/a	n/a	n/a	n/a	n/a	n/a	n/a	n/a	n/a
41.605	2.355	trial	1540.0	Novel	NEITHER*	HI*PITCH	LEFT*MIDDLE*	Correct	49.0	left_index_finger	blue	vertical	high	alarm	blue	vertical	low	alarm
43.959999999999994	1.57	ITI	n/a	n/a	n/a	n/a	n/a	n/a	n/a	n/a	n/a	n/a	n/a	n/a	n/a	n/a	n/a	n/a
45.529999999999994	2.355	trial	1564.0	Novel	NEITHER*	HI*PITCH	LEFT*MIDDLE*	Correct	49.0	left_index_finger	red	horizontal	high	alarm	red	vertical	low	alarm
47.88499999999999	12.56	delay	n/a	n/a	n/a	n/a	n/a	n/a	n/a	n/a	n/a	n/a	n/a	n/a	n/a	n/a	n/a	n/a
60.44499999999999	3.9250000000000003	encoding	n/a	Novel	**BOTH**	HI*PITCH	LEFT*MIDDLE*	n/a	1.0	n/a	n/a	n/a	n/a	n/a	n/a	n/a	n/a	n/a
64.36999999999999	2.355	delay	n/a	n/a	n/a	n/a	n/a	n/a	n/a	n/a	n/a	n/a	n/a	n/a	n/a	n/a	n/a	n/a
66.725	2.355	trial	2040.0	Novel	**BOTH**	HI*PITCH	LEFT*MIDDLE*	Correct	1.0	left_index_finger	red	horizontal	low	alarm	blue	vertical	high	constant
69.08	1.57	ITI	n/a	n/a	n/a	n/a	n/a	n/a	n/a	n/a	n/a	n/a	n/a	n/a	n/a	n/a	n/a	n/a
70.64999999999999	2.355	trial	860.0	Novel	**BOTH**	HI*PITCH	LEFT*MIDDLE*	Correct	1.0	left_index_finger	red	vertical	low	constant	blue	vertical	high	alarm
73.005	1.57	ITI	n/a	n/a	n/a	n/a	n/a	n/a	n/a	n/a	n/a	n/a	n/a	n/a	n/a	n/a	n/a	n/a
74.57499999999999	2.355	trial	1658.0	Novel	**BOTH**	HI*PITCH	LEFT*MIDDLE*	Correct	1.0	left_middle_finger	blue	vertical	high	alarm	blue	horizontal	high	alarm
76.92999999999999	11.775	delay	n/a	n/a	n/a	n/a	n/a	n/a	n/a	n/a	n/a	n/a	n/a	n/a	n/a	n/a	n/a	n/a
88.705	3.9250000000000003	encoding	n/a	Novel	**BOTH**	VERTICAL	*LEFT*INDEX*	n/a	14.0	n/a	n/a	n/a	n/a	n/a	n/a	n/a	n/a	n/a
92.63	4.71	delay	n/a	n/a	n/a	n/a	n/a	n/a	n/a	n/a	n/a	n/a	n/a	n/a	n/a	n/a	n/a	n/a
97.33999999999999	2.355	trial	1771.0	Novel	**BOTH**	VERTICAL	*LEFT*INDEX*	Correct	14.0	left_index_finger	blue	vertical	high	constant	red	vertical	low	constant
99.695	1.57	ITI	n/a	n/a	n/a	n/a	n/a	n/a	n/a	n/a	n/a	n/a	n/a	n/a	n/a	n/a	n/a	n/a
101.26499999999999	2.355	trial	1629.0	Novel	**BOTH**	VERTICAL	*LEFT*INDEX*	Correct	14.0	left_index_finger	blue	vertical	low	alarm	blue	vertical	high	constant
103.61999999999999	1.57	ITI	n/a	n/a	n/a	n/a	n/a	n/a	n/a	n/a	n/a	n/a	n/a	n/a	n/a	n/a	n/a	n/a
105.18999999999998	2.355	trial	1596.0	Novel	**BOTH**	VERTICAL	*LEFT*INDEX*	Correct	14.0	left_index_finger	blue	vertical	low	constant	red	vertical	low	alarm
107.54499999999999	9.42	delay	n/a	n/a	n/a	n/a	n/a	n/a	n/a	n/a	n/a	n/a	n/a	n/a	n/a	n/a	n/a	n/a
116.96499999999999	3.9250000000000003	encoding	n/a	Prac	*EITHER*	HI*PITCH	RIGHT*INDEX*	n/a	36.0	n/a	n/a	n/a	n/a	n/a	n/a	n/a	n/a	n/a
120.88999999999999	4.71	delay	n/a	n/a	n/a	n/a	n/a	n/a	n/a	n/a	n/a	n/a	n/a	n/a	n/a	n/a	n/a	n/a
125.59999999999998	2.355	trial	963.0	Prac	*EITHER*	HI*PITCH	RIGHT*INDEX*	Wrong	36.0	right_index_finger	blue	horizontal	low	constant	red	horizontal	low	alarm
127.95499999999998	1.57	ITI	n/a	n/a	n/a	n/a	n/a	n/a	n/a	n/a	n/a	n/a	n/a	n/a	n/a	n/a	n/a	n/a
129.52499999999998	2.355	trial	1262.0	Prac	*EITHER*	HI*PITCH	RIGHT*INDEX*	Wrong	36.0	right_index_finger	red	horizontal	low	constant	blue	horizontal	low	constant
131.87999999999997	1.57	ITI	n/a	n/a	n/a	n/a	n/a	n/a	n/a	n/a	n/a	n/a	n/a	n/a	n/a	n/a	n/a	n/a
133.44999999999996	2.355	trial	1766.0	Prac	*EITHER*	HI*PITCH	RIGHT*INDEX*	Wrong	36.0	right_middle_finger	blue	horizontal	high	constant	blue	vertical	low	alarm
135.80499999999995	9.42	delay	n/a	n/a	n/a	n/a	n/a	n/a	n/a	n/a	n/a	n/a	n/a	n/a	n/a	n/a	n/a	n/a
145.22499999999994	3.9250000000000003	encoding	n/a	Prac	NOT*BOTH	VERTICAL	RIGHT*MIDDLE	n/a	31.0	n/a	n/a	n/a	n/a	n/a	n/a	n/a	n/a	n/a
149.14999999999995	3.925	delay	n/a	n/a	n/a	n/a	n/a	n/a	n/a	n/a	n/a	n/a	n/a	n/a	n/a	n/a	n/a	n/a
153.07499999999996	2.355	trial	1771.0	Prac	NOT*BOTH	VERTICAL	RIGHT*MIDDLE	Correct	31.0	right_index_finger	blue	vertical	high	alarm	red	vertical	low	alarm
155.42999999999995	1.57	ITI	n/a	n/a	n/a	n/a	n/a	n/a	n/a	n/a	n/a	n/a	n/a	n/a	n/a	n/a	n/a	n/a
156.99999999999994	2.355	trial	1909.0	Prac	NOT*BOTH	VERTICAL	RIGHT*MIDDLE	Correct	31.0	right_middle_finger	blue	vertical	high	alarm	red	horizontal	high	alarm
159.35499999999993	1.57	ITI	n/a	n/a	n/a	n/a	n/a	n/a	n/a	n/a	n/a	n/a	n/a	n/a	n/a	n/a	n/a	n/a
160.92499999999993	2.355	trial	823.0	Prac	NOT*BOTH	VERTICAL	RIGHT*MIDDLE	Correct	31.0	right_middle_finger	blue	horizontal	high	alarm	blue	horizontal	high	alarm
163.27999999999992	10.205	delay	n/a	n/a	n/a	n/a	n/a	n/a	n/a	n/a	n/a	n/a	n/a	n/a	n/a	n/a	n/a	n/a
173.48499999999993	3.9250000000000003	encoding	n/a	Novel	*EITHER*	**RED***	RIGHT*MIDDLE	n/a	43.0	n/a	n/a	n/a	n/a	n/a	n/a	n/a	n/a	n/a
177.40999999999994	2.355	delay	n/a	n/a	n/a	n/a	n/a	n/a	n/a	n/a	n/a	n/a	n/a	n/a	n/a	n/a	n/a	n/a
179.76499999999993	2.355	trial	2209.0	Novel	*EITHER*	**RED***	RIGHT*MIDDLE	Correct	43.0	right_index_finger	blue	horizontal	low	alarm	blue	horizontal	low	constant
182.11999999999992	1.57	ITI	n/a	n/a	n/a	n/a	n/a	n/a	n/a	n/a	n/a	n/a	n/a	n/a	n/a	n/a	n/a	n/a
183.6899999999999	2.355	trial	1729.0	Novel	*EITHER*	**RED***	RIGHT*MIDDLE	Correct	43.0	right_middle_finger	blue	vertical	low	alarm	red	vertical	low	constant
186.0449999999999	1.57	ITI	n/a	n/a	n/a	n/a	n/a	n/a	n/a	n/a	n/a	n/a	n/a	n/a	n/a	n/a	n/a	n/a
187.6149999999999	2.355	trial	1710.0	Novel	*EITHER*	**RED***	RIGHT*MIDDLE	Correct	43.0	right_middle_finger	blue	horizontal	low	alarm	red	horizontal	high	alarm
189.96999999999989	11.775	delay	n/a	n/a	n/a	n/a	n/a	n/a	n/a	n/a	n/a	n/a	n/a	n/a	n/a	n/a	n/a	n/a
201.7449999999999	3.9250000000000003	encoding	n/a	Novel	*EITHER*	CONSTANT	LEFT*MIDDLE*	n/a	37.0	n/a	n/a	n/a	n/a	n/a	n/a	n/a	n/a	n/a
205.6699999999999	6.28	delay	n/a	n/a	n/a	n/a	n/a	n/a	n/a	n/a	n/a	n/a	n/a	n/a	n/a	n/a	n/a	n/a
211.9499999999999	2.355	trial	2051.0	Novel	*EITHER*	CONSTANT	LEFT*MIDDLE*	Correct	37.0	left_index_finger	blue	vertical	low	alarm	blue	vertical	low	alarm
214.3049999999999	1.57	ITI	n/a	n/a	n/a	n/a	n/a	n/a	n/a	n/a	n/a	n/a	n/a	n/a	n/a	n/a	n/a	n/a
215.8749999999999	2.355	trial	1826.0	Novel	*EITHER*	CONSTANT	LEFT*MIDDLE*	Correct	37.0	left_middle_finger	red	horizontal	high	alarm	blue	horizontal	low	constant
218.22999999999988	1.57	ITI	n/a	n/a	n/a	n/a	n/a	n/a	n/a	n/a	n/a	n/a	n/a	n/a	n/a	n/a	n/a	n/a
219.79999999999987	2.355	trial	1902.0	Novel	*EITHER*	CONSTANT	LEFT*MIDDLE*	Correct	37.0	left_index_finger	blue	horizontal	high	alarm	blue	horizontal	low	alarm
222.15499999999986	7.85	delay	n/a	n/a	n/a	n/a	n/a	n/a	n/a	n/a	n/a	n/a	n/a	n/a	n/a	n/a	n/a	n/a
230.00499999999985	3.9250000000000003	encoding	n/a	Novel	*EITHER*	**RED***	LEFT*MIDDLE*	n/a	41.0	n/a	n/a	n/a	n/a	n/a	n/a	n/a	n/a	n/a
233.92999999999986	5.495	delay	n/a	n/a	n/a	n/a	n/a	n/a	n/a	n/a	n/a	n/a	n/a	n/a	n/a	n/a	n/a	n/a
239.42499999999987	2.355	trial	1853.0	Novel	*EITHER*	**RED***	LEFT*MIDDLE*	Correct	41.0	left_middle_finger	blue	horizontal	low	constant	red	horizontal	low	alarm
241.77999999999986	1.57	ITI	n/a	n/a	n/a	n/a	n/a	n/a	n/a	n/a	n/a	n/a	n/a	n/a	n/a	n/a	n/a	n/a
243.34999999999985	2.355	trial	815.0	Novel	*EITHER*	**RED***	LEFT*MIDDLE*	Correct	41.0	left_middle_finger	red	vertical	high	constant	blue	vertical	low	alarm
245.70499999999984	1.57	ITI	n/a	n/a	n/a	n/a	n/a	n/a	n/a	n/a	n/a	n/a	n/a	n/a	n/a	n/a	n/a	n/a
247.27499999999984	2.355	trial	1601.0	Novel	*EITHER*	**RED***	LEFT*MIDDLE*	Correct	41.0	left_index_finger	blue	horizontal	high	constant	blue	horizontal	high	constant
249.62999999999982	8.635	delay	n/a	n/a	n/a	n/a	n/a	n/a	n/a	n/a	n/a	n/a	n/a	n/a	n/a	n/a	n/a	n/a
258.2649999999998	3.9250000000000003	encoding	n/a	Novel	**BOTH**	VERTICAL	RIGHT*MIDDLE	n/a	15.0	n/a	n/a	n/a	n/a	n/a	n/a	n/a	n/a	n/a
262.1899999999998	5.495	delay	n/a	n/a	n/a	n/a	n/a	n/a	n/a	n/a	n/a	n/a	n/a	n/a	n/a	n/a	n/a	n/a
267.68499999999983	2.355	trial	1796.0	Novel	**BOTH**	VERTICAL	RIGHT*MIDDLE	Correct	15.0	right_middle_finger	red	vertical	high	alarm	red	vertical	high	alarm
270.03999999999985	1.57	ITI	n/a	n/a	n/a	n/a	n/a	n/a	n/a	n/a	n/a	n/a	n/a	n/a	n/a	n/a	n/a	n/a
271.60999999999984	2.355	trial	1597.0	Novel	**BOTH**	VERTICAL	RIGHT*MIDDLE	Correct	15.0	right_middle_finger	red	vertical	high	alarm	red	vertical	low	constant
273.96499999999986	1.57	ITI	n/a	n/a	n/a	n/a	n/a	n/a	n/a	n/a	n/a	n/a	n/a	n/a	n/a	n/a	n/a	n/a
275.53499999999985	2.355	trial	511.0	Novel	**BOTH**	VERTICAL	RIGHT*MIDDLE	Correct	15.0	right_index_finger	red	horizontal	high	alarm	red	vertical	low	constant
277.8899999999999	8.635	delay	n/a	n/a	n/a	n/a	n/a	n/a	n/a	n/a	n/a	n/a	n/a	n/a	n/a	n/a	n/a	n/a
286.52499999999986	3.9250000000000003	encoding	n/a	Novel	NOT*BOTH	**RED***	RIGHT*INDEX*	n/a	28.0	n/a	n/a	n/a	n/a	n/a	n/a	n/a	n/a	n/a
290.4499999999999	3.925	delay	n/a	n/a	n/a	n/a	n/a	n/a	n/a	n/a	n/a	n/a	n/a	n/a	n/a	n/a	n/a	n/a
294.3749999999999	2.355	trial	1845.0	Novel	NOT*BOTH	**RED***	RIGHT*INDEX*	Correct	28.0	right_middle_finger	red	vertical	high	alarm	red	vertical	high	constant
296.7299999999999	1.57	ITI	n/a	n/a	n/a	n/a	n/a	n/a	n/a	n/a	n/a	n/a	n/a	n/a	n/a	n/a	n/a	n/a
298.2999999999999	2.355	trial	1738.0	Novel	NOT*BOTH	**RED***	RIGHT*INDEX*	Correct	28.0	right_middle_finger	red	horizontal	low	constant	red	vertical	high	alarm
300.6549999999999	1.57	ITI	n/a	n/a	n/a	n/a	n/a	n/a	n/a	n/a	n/a	n/a	n/a	n/a	n/a	n/a	n/a	n/a
302.2249999999999	2.355	trial	1591.0	Novel	NOT*BOTH	**RED***	RIGHT*INDEX*	Correct	28.0	right_index_finger	red	vertical	high	constant	blue	horizontal	high	alarm
304.5799999999999	10.205	delay	n/a	n/a	n/a	n/a	n/a	n/a	n/a	n/a	n/a	n/a	n/a	n/a	n/a	n/a	n/a	n/a
314.7849999999999	3.9250000000000003	encoding	n/a	Novel	NOT*BOTH	CONSTANT	RIGHT*INDEX*	n/a	24.0	n/a	n/a	n/a	n/a	n/a	n/a	n/a	n/a	n/a
318.7099999999999	2.355	delay	n/a	n/a	n/a	n/a	n/a	n/a	n/a	n/a	n/a	n/a	n/a	n/a	n/a	n/a	n/a	n/a
321.06499999999994	2.355	trial	2132.0	Novel	NOT*BOTH	CONSTANT	RIGHT*INDEX*	Correct	24.0	right_index_finger	red	vertical	high	alarm	blue	horizontal	high	alarm
323.41999999999996	1.57	ITI	n/a	n/a	n/a	n/a	n/a	n/a	n/a	n/a	n/a	n/a	n/a	n/a	n/a	n/a	n/a	n/a
324.98999999999995	2.355	trial	2107.0	Novel	NOT*BOTH	CONSTANT	RIGHT*INDEX*	Correct	24.0	right_index_finger	red	vertical	high	alarm	red	vertical	high	alarm
327.34499999999997	1.57	ITI	n/a	n/a	n/a	n/a	n/a	n/a	n/a	n/a	n/a	n/a	n/a	n/a	n/a	n/a	n/a	n/a
328.91499999999996	2.355	trial	1950.0	Novel	NOT*BOTH	CONSTANT	RIGHT*INDEX*	Wrong	24.0	right_index_finger	blue	vertical	high	constant	blue	vertical	low	constant
331.27	11.775	delay	n/a	n/a	n/a	n/a	n/a	n/a	n/a	n/a	n/a	n/a	n/a	n/a	n/a	n/a	n/a	n/a
343.04499999999996	3.9250000000000003	encoding	n/a	Novel	NOT*BOTH	VERTICAL	RIGHT*INDEX*	n/a	32.0	n/a	n/a	n/a	n/a	n/a	n/a	n/a	n/a	n/a
346.96999999999997	1.57	delay	n/a	n/a	n/a	n/a	n/a	n/a	n/a	n/a	n/a	n/a	n/a	n/a	n/a	n/a	n/a	n/a
348.53999999999996	2.355	trial	1842.0	Novel	NOT*BOTH	VERTICAL	RIGHT*INDEX*	Correct	32.0	right_index_finger	red	vertical	high	alarm	red	horizontal	high	alarm
350.895	1.57	ITI	n/a	n/a	n/a	n/a	n/a	n/a	n/a	n/a	n/a	n/a	n/a	n/a	n/a	n/a	n/a	n/a
352.465	2.355	trial	1776.0	Novel	NOT*BOTH	VERTICAL	RIGHT*INDEX*	Correct	32.0	right_middle_finger	red	vertical	low	alarm	red	vertical	high	alarm
354.82	1.57	ITI	n/a	n/a	n/a	n/a	n/a	n/a	n/a	n/a	n/a	n/a	n/a	n/a	n/a	n/a	n/a	n/a
356.39	2.355	trial	1719.0	Novel	NOT*BOTH	VERTICAL	RIGHT*INDEX*	Correct	32.0	right_middle_finger	blue	vertical	high	alarm	blue	vertical	high	alarm
358.745	12.56	delay	n/a	n/a	n/a	n/a	n/a	n/a	n/a	n/a	n/a	n/a	n/a	n/a	n/a	n/a	n/a	n/a
371.305	3.9250000000000003	encoding	n/a	Novel	NOT*BOTH	CONSTANT	LEFT*MIDDLE*	n/a	21.0	n/a	n/a	n/a	n/a	n/a	n/a	n/a	n/a	n/a
375.23	6.28	delay	n/a	n/a	n/a	n/a	n/a	n/a	n/a	n/a	n/a	n/a	n/a	n/a	n/a	n/a	n/a	n/a
381.51	2.355	trial	1971.0	Novel	NOT*BOTH	CONSTANT	LEFT*MIDDLE*	Correct	21.0	left_index_finger	blue	horizontal	high	constant	blue	vertical	high	constant
383.865	1.57	ITI	n/a	n/a	n/a	n/a	n/a	n/a	n/a	n/a	n/a	n/a	n/a	n/a	n/a	n/a	n/a	n/a
385.435	2.355	trial	1857.0	Novel	NOT*BOTH	CONSTANT	LEFT*MIDDLE*	Correct	21.0	left_index_finger	blue	vertical	high	constant	red	vertical	high	constant
387.79	1.57	ITI	n/a	n/a	n/a	n/a	n/a	n/a	n/a	n/a	n/a	n/a	n/a	n/a	n/a	n/a	n/a	n/a
389.36	2.355	trial	1730.0	Novel	NOT*BOTH	CONSTANT	LEFT*MIDDLE*	Correct	21.0	left_index_finger	blue	vertical	high	constant	red	horizontal	high	constant
391.71500000000003	7.85	delay	n/a	n/a	n/a	n/a	n/a	n/a	n/a	n/a	n/a	n/a	n/a	n/a	n/a	n/a	n/a	n/a
399.56500000000005	3.9250000000000003	encoding	n/a	Novel	NOT*BOTH	VERTICAL	*LEFT*INDEX*	n/a	30.0	n/a	n/a	n/a	n/a	n/a	n/a	n/a	n/a	n/a
403.49000000000007	1.57	delay	n/a	n/a	n/a	n/a	n/a	n/a	n/a	n/a	n/a	n/a	n/a	n/a	n/a	n/a	n/a	n/a
405.06000000000006	2.355	trial	2366.0	Novel	NOT*BOTH	VERTICAL	*LEFT*INDEX*	Wrong	30.0	left_middle_finger	red	vertical	low	alarm	red	horizontal	high	constant
407.4150000000001	1.57	ITI	n/a	n/a	n/a	n/a	n/a	n/a	n/a	n/a	n/a	n/a	n/a	n/a	n/a	n/a	n/a	n/a
408.98500000000007	2.355	trial	1889.0	Novel	NOT*BOTH	VERTICAL	*LEFT*INDEX*	Correct	30.0	left_middle_finger	blue	vertical	high	constant	red	vertical	low	constant
411.3400000000001	1.57	ITI	n/a	n/a	n/a	n/a	n/a	n/a	n/a	n/a	n/a	n/a	n/a	n/a	n/a	n/a	n/a	n/a
412.9100000000001	2.355	trial	1704.0	Novel	NOT*BOTH	VERTICAL	*LEFT*INDEX*	Wrong	30.0	left_index_finger	red	vertical	high	alarm	blue	vertical	low	constant
415.2650000000001	12.56	delay	n/a	n/a	n/a	n/a	n/a	n/a	n/a	n/a	n/a	n/a	n/a	n/a	n/a	n/a	n/a	n/a
427.8250000000001	3.9250000000000003	encoding	n/a	Novel	NEITHER*	HI*PITCH	*LEFT*INDEX*	n/a	50.0	n/a	n/a	n/a	n/a	n/a	n/a	n/a	n/a	n/a
431.7500000000001	3.14	delay	n/a	n/a	n/a	n/a	n/a	n/a	n/a	n/a	n/a	n/a	n/a	n/a	n/a	n/a	n/a	n/a
434.8900000000001	2.355	trial	1788.0	Novel	NEITHER*	HI*PITCH	*LEFT*INDEX*	Correct	50.0	left_index_finger	red	vertical	low	constant	red	vertical	low	constant
437.2450000000001	1.57	ITI	n/a	n/a	n/a	n/a	n/a	n/a	n/a	n/a	n/a	n/a	n/a	n/a	n/a	n/a	n/a	n/a
438.8150000000001	2.355	trial	1737.0	Novel	NEITHER*	HI*PITCH	*LEFT*INDEX*	Correct	50.0	left_index_finger	blue	vertical	low	alarm	blue	vertical	low	alarm
441.17000000000013	1.57	ITI	n/a	n/a	n/a	n/a	n/a	n/a	n/a	n/a	n/a	n/a	n/a	n/a	n/a	n/a	n/a	n/a
442.7400000000001	2.355	trial	1718.0	Novel	NEITHER*	HI*PITCH	*LEFT*INDEX*	Correct	50.0	left_index_finger	red	horizontal	low	alarm	red	horizontal	low	alarm
445.09500000000014	10.99	delay	n/a	n/a	n/a	n/a	n/a	n/a	n/a	n/a	n/a	n/a	n/a	n/a	n/a	n/a	n/a	n/a
