onset	duration	task_event	rt_in_ms	task_novelty	logic_rule	sensory_rule	motor_rule	performance	task_id	motor_response	stimulus1_color	stimulus1_orientation	stimulus1_pitch	stimulus1_continuity	stimulus2_color	stimulus2_orientation	stimulus2_pitch	stimulus2_continuity
0.0	3.9250000000000003	delay	n/a	n/a	n/a	n/a	n/a	n/a	n/a	n/a	n/a	n/a	n/a	n/a	n/a	n/a	n/a	n/a
3.9250000000000003	3.9250000000000003	encoding	n/a	Novel	NOT*BOTH	CONSTANT	LEFT*MIDDLE*	n/a	21.0	n/a	n/a	n/a	n/a	n/a	n/a	n/a	n/a	n/a
7.8500000000000005	6.28	delay	n/a	n/a	n/a	n/a	n/a	n/a	n/a	n/a	n/a	n/a	n/a	n/a	n/a	n/a	n/a	n/a
14.13	2.355	trial	2380.0	Novel	NOT*BOTH	CONSTANT	LEFT*MIDDLE*	Correct	21.0	left_index_finger	blue	vertical	high	constant	red	vertical	low	constant
16.485	1.57	ITI	n/a	n/a	n/a	n/a	n/a	n/a	n/a	n/a	n/a	n/a	n/a	n/a	n/a	n/a	n/a	n/a
18.055	2.355	trial	803.0	Novel	NOT*BOTH	CONSTANT	LEFT*MIDDLE*	Correct	21.0	left_middle_finger	blue	vertical	low	alarm	red	vertical	high	constant
20.41	1.57	ITI	n/a	n/a	n/a	n/a	n/a	n/a	n/a	n/a	n/a	n/a	n/a	n/a	n/a	n/a	n/a	n/a
21.98	2.355	trial	809.0	Novel	NOT*BOTH	CONSTANT	LEFT*MIDDLE*	Correct	21.0	left_middle_finger	red	horizontal	low	alarm	red	horizontal	high	alarm
24.335	7.85	delay	n/a	n/a	n/a	n/a	n/a	n/a	n/a	n/a	n/a	n/a	n/a	n/a	n/a	n/a	n/a	n/a
32.185	3.9250000000000003	encoding	n/a	Novel	**BOTH**	**RED***	*LEFT*INDEX*	n/a	10.0	n/a	n/a	n/a	n/a	n/a	n/a	n/a	n/a	n/a
36.11	1.57	delay	n/a	n/a	n/a	n/a	n/a	n/a	n/a	n/a	n/a	n/a	n/a	n/a	n/a	n/a	n/a	n/a
37.68	2.355	trial	1884.0	Novel	**BOTH**	**RED***	*LEFT*INDEX*	Correct	10.0	left_index_finger	red	vertical	low	alarm	red	vertical	high	alarm
40.035	1.57	ITI	n/a	n/a	n/a	n/a	n/a	n/a	n/a	n/a	n/a	n/a	n/a	n/a	n/a	n/a	n/a	n/a
41.605	2.355	trial	1634.0	Novel	**BOTH**	**RED***	*LEFT*INDEX*	Correct	10.0	left_index_finger	red	horizontal	low	alarm	red	vertical	high	constant
43.959999999999994	1.57	ITI	n/a	n/a	n/a	n/a	n/a	n/a	n/a	n/a	n/a	n/a	n/a	n/a	n/a	n/a	n/a	n/a
45.529999999999994	2.355	trial	1601.0	Novel	**BOTH**	**RED***	*LEFT*INDEX*	Correct	10.0	left_index_finger	red	horizontal	low	constant	red	vertical	high	alarm
47.88499999999999	12.56	delay	n/a	n/a	n/a	n/a	n/a	n/a	n/a	n/a	n/a	n/a	n/a	n/a	n/a	n/a	n/a	n/a
60.44499999999999	3.9250000000000003	encoding	n/a	Novel	*EITHER*	**RED***	RIGHT*INDEX*	n/a	44.0	n/a	n/a	n/a	n/a	n/a	n/a	n/a	n/a	n/a
64.36999999999999	3.925	delay	n/a	n/a	n/a	n/a	n/a	n/a	n/a	n/a	n/a	n/a	n/a	n/a	n/a	n/a	n/a	n/a
68.29499999999999	2.355	trial	1075.0	Novel	*EITHER*	**RED***	RIGHT*INDEX*	Correct	44.0	right_middle_finger	blue	vertical	low	constant	blue	vertical	low	alarm
70.64999999999999	1.57	ITI	n/a	n/a	n/a	n/a	n/a	n/a	n/a	n/a	n/a	n/a	n/a	n/a	n/a	n/a	n/a	n/a
72.21999999999998	2.355	trial	1667.0	Novel	*EITHER*	**RED***	RIGHT*INDEX*	Correct	44.0	right_middle_finger	blue	vertical	low	constant	blue	vertical	high	constant
74.57499999999999	1.57	ITI	n/a	n/a	n/a	n/a	n/a	n/a	n/a	n/a	n/a	n/a	n/a	n/a	n/a	n/a	n/a	n/a
76.14499999999998	2.355	trial	1705.0	Novel	*EITHER*	**RED***	RIGHT*INDEX*	Correct	44.0	right_middle_finger	blue	horizontal	high	alarm	blue	vertical	high	alarm
78.49999999999999	10.205	delay	n/a	n/a	n/a	n/a	n/a	n/a	n/a	n/a	n/a	n/a	n/a	n/a	n/a	n/a	n/a	n/a
88.70499999999998	3.9250000000000003	encoding	n/a	Novel	*EITHER*	CONSTANT	RIGHT*INDEX*	n/a	40.0	n/a	n/a	n/a	n/a	n/a	n/a	n/a	n/a	n/a
92.62999999999998	3.14	delay	n/a	n/a	n/a	n/a	n/a	n/a	n/a	n/a	n/a	n/a	n/a	n/a	n/a	n/a	n/a	n/a
95.76999999999998	2.355	trial	2045.0	Novel	*EITHER*	CONSTANT	RIGHT*INDEX*	Correct	40.0	right_index_finger	blue	horizontal	low	alarm	blue	horizontal	high	constant
98.12499999999999	1.57	ITI	n/a	n/a	n/a	n/a	n/a	n/a	n/a	n/a	n/a	n/a	n/a	n/a	n/a	n/a	n/a	n/a
99.69499999999998	2.355	trial	2128.0	Novel	*EITHER*	CONSTANT	RIGHT*INDEX*	Correct	40.0	right_index_finger	red	horizontal	low	alarm	red	vertical	low	constant
102.04999999999998	1.57	ITI	n/a	n/a	n/a	n/a	n/a	n/a	n/a	n/a	n/a	n/a	n/a	n/a	n/a	n/a	n/a	n/a
103.61999999999998	2.355	trial	1768.0	Novel	*EITHER*	CONSTANT	RIGHT*INDEX*	Correct	40.0	right_index_finger	blue	horizontal	low	constant	red	horizontal	high	alarm
105.97499999999998	10.99	delay	n/a	n/a	n/a	n/a	n/a	n/a	n/a	n/a	n/a	n/a	n/a	n/a	n/a	n/a	n/a	n/a
116.96499999999997	3.9250000000000003	encoding	n/a	Novel	NEITHER*	VERTICAL	*LEFT*INDEX*	n/a	62.0	n/a	n/a	n/a	n/a	n/a	n/a	n/a	n/a	n/a
120.88999999999997	3.14	delay	n/a	n/a	n/a	n/a	n/a	n/a	n/a	n/a	n/a	n/a	n/a	n/a	n/a	n/a	n/a	n/a
124.02999999999997	2.355	trial	1743.0	Novel	NEITHER*	VERTICAL	*LEFT*INDEX*	Correct	62.0	left_index_finger	red	horizontal	high	constant	blue	horizontal	low	constant
126.38499999999998	1.57	ITI	n/a	n/a	n/a	n/a	n/a	n/a	n/a	n/a	n/a	n/a	n/a	n/a	n/a	n/a	n/a	n/a
127.95499999999997	2.355	trial	1702.0	Novel	NEITHER*	VERTICAL	*LEFT*INDEX*	Correct	62.0	left_index_finger	red	horizontal	low	alarm	red	horizontal	high	constant
130.30999999999997	1.57	ITI	n/a	n/a	n/a	n/a	n/a	n/a	n/a	n/a	n/a	n/a	n/a	n/a	n/a	n/a	n/a	n/a
131.87999999999997	2.355	trial	1660.0	Novel	NEITHER*	VERTICAL	*LEFT*INDEX*	Correct	62.0	left_middle_finger	red	horizontal	high	constant	red	vertical	high	alarm
134.23499999999996	10.99	delay	n/a	n/a	n/a	n/a	n/a	n/a	n/a	n/a	n/a	n/a	n/a	n/a	n/a	n/a	n/a	n/a
145.22499999999997	3.9250000000000003	encoding	n/a	Novel	*EITHER*	CONSTANT	*LEFT*INDEX*	n/a	38.0	n/a	n/a	n/a	n/a	n/a	n/a	n/a	n/a	n/a
149.14999999999998	6.28	delay	n/a	n/a	n/a	n/a	n/a	n/a	n/a	n/a	n/a	n/a	n/a	n/a	n/a	n/a	n/a	n/a
155.42999999999998	2.355	trial	2109.0	Novel	*EITHER*	CONSTANT	*LEFT*INDEX*	Correct	38.0	left_index_finger	red	vertical	low	constant	blue	vertical	low	constant
157.78499999999997	1.57	ITI	n/a	n/a	n/a	n/a	n/a	n/a	n/a	n/a	n/a	n/a	n/a	n/a	n/a	n/a	n/a	n/a
159.35499999999996	2.355	trial	1314.0	Novel	*EITHER*	CONSTANT	*LEFT*INDEX*	Correct	38.0	left_index_finger	red	horizontal	high	constant	blue	horizontal	low	constant
161.70999999999995	1.57	ITI	n/a	n/a	n/a	n/a	n/a	n/a	n/a	n/a	n/a	n/a	n/a	n/a	n/a	n/a	n/a	n/a
163.27999999999994	2.355	trial	1972.0	Novel	*EITHER*	CONSTANT	*LEFT*INDEX*	Correct	38.0	left_index_finger	blue	vertical	high	alarm	red	vertical	high	constant
165.63499999999993	7.85	delay	n/a	n/a	n/a	n/a	n/a	n/a	n/a	n/a	n/a	n/a	n/a	n/a	n/a	n/a	n/a	n/a
173.48499999999993	3.9250000000000003	encoding	n/a	Novel	NOT*BOTH	CONSTANT	*LEFT*INDEX*	n/a	22.0	n/a	n/a	n/a	n/a	n/a	n/a	n/a	n/a	n/a
177.40999999999994	1.57	delay	n/a	n/a	n/a	n/a	n/a	n/a	n/a	n/a	n/a	n/a	n/a	n/a	n/a	n/a	n/a	n/a
178.97999999999993	2.355	trial	950.0	Novel	NOT*BOTH	CONSTANT	*LEFT*INDEX*	Correct	22.0	left_middle_finger	red	vertical	low	constant	red	horizontal	low	constant
181.33499999999992	1.57	ITI	n/a	n/a	n/a	n/a	n/a	n/a	n/a	n/a	n/a	n/a	n/a	n/a	n/a	n/a	n/a	n/a
182.90499999999992	2.355	trial	2026.0	Novel	NOT*BOTH	CONSTANT	*LEFT*INDEX*	Wrong	22.0	left_middle_finger	blue	horizontal	low	alarm	blue	vertical	high	constant
185.2599999999999	1.57	ITI	n/a	n/a	n/a	n/a	n/a	n/a	n/a	n/a	n/a	n/a	n/a	n/a	n/a	n/a	n/a	n/a
186.8299999999999	2.355	trial	0.0	Novel	NOT*BOTH	CONSTANT	*LEFT*INDEX*	No Response	22.0	no_response	blue	horizontal	low	constant	blue	vertical	high	constant
189.1849999999999	12.56	delay	n/a	n/a	n/a	n/a	n/a	n/a	n/a	n/a	n/a	n/a	n/a	n/a	n/a	n/a	n/a	n/a
201.7449999999999	3.9250000000000003	encoding	n/a	Novel	**BOTH**	HI*PITCH	*LEFT*INDEX*	n/a	2.0	n/a	n/a	n/a	n/a	n/a	n/a	n/a	n/a	n/a
205.6699999999999	5.495	delay	n/a	n/a	n/a	n/a	n/a	n/a	n/a	n/a	n/a	n/a	n/a	n/a	n/a	n/a	n/a	n/a
211.1649999999999	2.355	trial	1869.0	Novel	**BOTH**	HI*PITCH	*LEFT*INDEX*	Correct	2.0	left_index_finger	blue	vertical	high	alarm	red	horizontal	high	constant
213.5199999999999	1.57	ITI	n/a	n/a	n/a	n/a	n/a	n/a	n/a	n/a	n/a	n/a	n/a	n/a	n/a	n/a	n/a	n/a
215.0899999999999	2.355	trial	1501.0	Novel	**BOTH**	HI*PITCH	*LEFT*INDEX*	Correct	2.0	left_middle_finger	blue	vertical	low	constant	blue	horizontal	low	alarm
217.44499999999988	1.57	ITI	n/a	n/a	n/a	n/a	n/a	n/a	n/a	n/a	n/a	n/a	n/a	n/a	n/a	n/a	n/a	n/a
219.01499999999987	2.355	trial	1847.0	Novel	**BOTH**	HI*PITCH	*LEFT*INDEX*	Wrong	2.0	left_index_finger	blue	horizontal	low	alarm	red	horizontal	high	constant
221.36999999999986	8.635	delay	n/a	n/a	n/a	n/a	n/a	n/a	n/a	n/a	n/a	n/a	n/a	n/a	n/a	n/a	n/a	n/a
230.00499999999985	3.9250000000000003	encoding	n/a	Novel	NEITHER*	HI*PITCH	RIGHT*INDEX*	n/a	52.0	n/a	n/a	n/a	n/a	n/a	n/a	n/a	n/a	n/a
233.92999999999986	3.925	delay	n/a	n/a	n/a	n/a	n/a	n/a	n/a	n/a	n/a	n/a	n/a	n/a	n/a	n/a	n/a	n/a
237.85499999999988	2.355	trial	1925.0	Novel	NEITHER*	HI*PITCH	RIGHT*INDEX*	Correct	52.0	right_index_finger	red	vertical	low	alarm	red	vertical	low	constant
240.20999999999987	1.57	ITI	n/a	n/a	n/a	n/a	n/a	n/a	n/a	n/a	n/a	n/a	n/a	n/a	n/a	n/a	n/a	n/a
241.77999999999986	2.355	trial	1065.0	Novel	NEITHER*	HI*PITCH	RIGHT*INDEX*	Correct	52.0	right_middle_finger	blue	vertical	high	alarm	blue	vertical	low	alarm
244.13499999999985	1.57	ITI	n/a	n/a	n/a	n/a	n/a	n/a	n/a	n/a	n/a	n/a	n/a	n/a	n/a	n/a	n/a	n/a
245.70499999999984	2.355	trial	2090.0	Novel	NEITHER*	HI*PITCH	RIGHT*INDEX*	Correct	52.0	right_index_finger	red	horizontal	low	alarm	red	vertical	low	constant
248.05999999999983	10.205	delay	n/a	n/a	n/a	n/a	n/a	n/a	n/a	n/a	n/a	n/a	n/a	n/a	n/a	n/a	n/a	n/a
258.2649999999998	3.9250000000000003	encoding	n/a	Novel	NEITHER*	CONSTANT	RIGHT*INDEX*	n/a	56.0	n/a	n/a	n/a	n/a	n/a	n/a	n/a	n/a	n/a
262.1899999999998	1.57	delay	n/a	n/a	n/a	n/a	n/a	n/a	n/a	n/a	n/a	n/a	n/a	n/a	n/a	n/a	n/a	n/a
263.7599999999998	2.355	trial	2993.0	Novel	NEITHER*	CONSTANT	RIGHT*INDEX*	Wrong	56.0	right_middle_finger	red	vertical	low	alarm	red	vertical	high	alarm
266.11499999999984	1.57	ITI	n/a	n/a	n/a	n/a	n/a	n/a	n/a	n/a	n/a	n/a	n/a	n/a	n/a	n/a	n/a	n/a
267.68499999999983	2.355	trial	3459.0	Novel	NEITHER*	CONSTANT	RIGHT*INDEX*	Correct	56.0	right_middle_finger	red	vertical	low	constant	red	horizontal	low	alarm
270.03999999999985	1.57	ITI	n/a	n/a	n/a	n/a	n/a	n/a	n/a	n/a	n/a	n/a	n/a	n/a	n/a	n/a	n/a	n/a
271.60999999999984	2.355	trial	1957.0	Novel	NEITHER*	CONSTANT	RIGHT*INDEX*	Correct	56.0	right_index_finger	blue	vertical	high	alarm	red	vertical	low	alarm
273.96499999999986	12.56	delay	n/a	n/a	n/a	n/a	n/a	n/a	n/a	n/a	n/a	n/a	n/a	n/a	n/a	n/a	n/a	n/a
286.52499999999986	3.9250000000000003	encoding	n/a	Novel	NEITHER*	CONSTANT	RIGHT*MIDDLE	n/a	55.0	n/a	n/a	n/a	n/a	n/a	n/a	n/a	n/a	n/a
290.4499999999999	1.57	delay	n/a	n/a	n/a	n/a	n/a	n/a	n/a	n/a	n/a	n/a	n/a	n/a	n/a	n/a	n/a	n/a
292.01999999999987	2.355	trial	2970.0	Novel	NEITHER*	CONSTANT	RIGHT*MIDDLE	Wrong	55.0	right_middle_finger	blue	horizontal	high	alarm	blue	vertical	high	constant
294.3749999999999	1.57	ITI	n/a	n/a	n/a	n/a	n/a	n/a	n/a	n/a	n/a	n/a	n/a	n/a	n/a	n/a	n/a	n/a
295.9449999999999	2.355	trial	7.0	Novel	NEITHER*	CONSTANT	RIGHT*MIDDLE	Correct	55.0	right_index_finger	red	vertical	low	constant	red	horizontal	low	constant
298.2999999999999	1.57	ITI	n/a	n/a	n/a	n/a	n/a	n/a	n/a	n/a	n/a	n/a	n/a	n/a	n/a	n/a	n/a	n/a
299.8699999999999	2.355	trial	0.0	Novel	NEITHER*	CONSTANT	RIGHT*MIDDLE	No Response	55.0	no_response	blue	vertical	high	alarm	blue	vertical	low	constant
302.2249999999999	12.56	delay	n/a	n/a	n/a	n/a	n/a	n/a	n/a	n/a	n/a	n/a	n/a	n/a	n/a	n/a	n/a	n/a
314.7849999999999	3.9250000000000003	encoding	n/a	Novel	NOT*BOTH	**RED***	LEFT*MIDDLE*	n/a	25.0	n/a	n/a	n/a	n/a	n/a	n/a	n/a	n/a	n/a
318.7099999999999	5.495	delay	n/a	n/a	n/a	n/a	n/a	n/a	n/a	n/a	n/a	n/a	n/a	n/a	n/a	n/a	n/a	n/a
324.2049999999999	2.355	trial	1897.0	Novel	NOT*BOTH	**RED***	LEFT*MIDDLE*	Correct	25.0	left_index_finger	red	vertical	low	alarm	red	vertical	low	alarm
326.55999999999995	1.57	ITI	n/a	n/a	n/a	n/a	n/a	n/a	n/a	n/a	n/a	n/a	n/a	n/a	n/a	n/a	n/a	n/a
328.12999999999994	2.355	trial	2105.0	Novel	NOT*BOTH	**RED***	LEFT*MIDDLE*	Correct	25.0	left_index_finger	red	horizontal	high	alarm	red	horizontal	low	constant
330.48499999999996	1.57	ITI	n/a	n/a	n/a	n/a	n/a	n/a	n/a	n/a	n/a	n/a	n/a	n/a	n/a	n/a	n/a	n/a
332.05499999999995	2.355	trial	820.0	Novel	NOT*BOTH	**RED***	LEFT*MIDDLE*	Wrong	25.0	left_index_finger	red	vertical	low	constant	blue	vertical	high	alarm
334.40999999999997	8.635	delay	n/a	n/a	n/a	n/a	n/a	n/a	n/a	n/a	n/a	n/a	n/a	n/a	n/a	n/a	n/a	n/a
343.04499999999996	3.9250000000000003	encoding	n/a	Novel	NEITHER*	HI*PITCH	LEFT*MIDDLE*	n/a	49.0	n/a	n/a	n/a	n/a	n/a	n/a	n/a	n/a	n/a
346.96999999999997	5.495	delay	n/a	n/a	n/a	n/a	n/a	n/a	n/a	n/a	n/a	n/a	n/a	n/a	n/a	n/a	n/a	n/a
352.465	2.355	trial	2064.0	Novel	NEITHER*	HI*PITCH	LEFT*MIDDLE*	Correct	49.0	left_middle_finger	blue	horizontal	low	constant	red	vertical	low	alarm
354.82	1.57	ITI	n/a	n/a	n/a	n/a	n/a	n/a	n/a	n/a	n/a	n/a	n/a	n/a	n/a	n/a	n/a	n/a
356.39	2.355	trial	2091.0	Novel	NEITHER*	HI*PITCH	LEFT*MIDDLE*	Correct	49.0	left_middle_finger	blue	vertical	low	constant	red	vertical	low	alarm
358.745	1.57	ITI	n/a	n/a	n/a	n/a	n/a	n/a	n/a	n/a	n/a	n/a	n/a	n/a	n/a	n/a	n/a	n/a
360.315	2.355	trial	2103.0	Novel	NEITHER*	HI*PITCH	LEFT*MIDDLE*	Correct	49.0	left_middle_finger	red	vertical	low	alarm	red	horizontal	low	alarm
362.67	8.635	delay	n/a	n/a	n/a	n/a	n/a	n/a	n/a	n/a	n/a	n/a	n/a	n/a	n/a	n/a	n/a	n/a
371.305	3.9250000000000003	encoding	n/a	Novel	**BOTH**	HI*PITCH	RIGHT*INDEX*	n/a	4.0	n/a	n/a	n/a	n/a	n/a	n/a	n/a	n/a	n/a
375.23	4.71	delay	n/a	n/a	n/a	n/a	n/a	n/a	n/a	n/a	n/a	n/a	n/a	n/a	n/a	n/a	n/a	n/a
379.94	2.355	trial	2505.0	Novel	**BOTH**	HI*PITCH	RIGHT*INDEX*	Correct	4.0	right_index_finger	blue	horizontal	high	alarm	red	horizontal	high	constant
382.295	1.57	ITI	n/a	n/a	n/a	n/a	n/a	n/a	n/a	n/a	n/a	n/a	n/a	n/a	n/a	n/a	n/a	n/a
383.865	2.355	trial	2368.0	Novel	**BOTH**	HI*PITCH	RIGHT*INDEX*	Correct	4.0	right_index_finger	red	horizontal	high	alarm	red	horizontal	high	constant
386.22	1.57	ITI	n/a	n/a	n/a	n/a	n/a	n/a	n/a	n/a	n/a	n/a	n/a	n/a	n/a	n/a	n/a	n/a
387.79	2.355	trial	1720.0	Novel	**BOTH**	HI*PITCH	RIGHT*INDEX*	Correct	4.0	right_middle_finger	blue	vertical	low	alarm	red	horizontal	low	alarm
390.14500000000004	9.42	delay	n/a	n/a	n/a	n/a	n/a	n/a	n/a	n/a	n/a	n/a	n/a	n/a	n/a	n/a	n/a	n/a
399.56500000000005	3.9250000000000003	encoding	n/a	Novel	**BOTH**	**RED***	RIGHT*MIDDLE	n/a	11.0	n/a	n/a	n/a	n/a	n/a	n/a	n/a	n/a	n/a
403.49000000000007	4.71	delay	n/a	n/a	n/a	n/a	n/a	n/a	n/a	n/a	n/a	n/a	n/a	n/a	n/a	n/a	n/a	n/a
408.20000000000005	2.355	trial	2179.0	Novel	**BOTH**	**RED***	RIGHT*MIDDLE	Correct	11.0	right_middle_finger	red	vertical	high	alarm	red	vertical	high	constant
410.55500000000006	1.57	ITI	n/a	n/a	n/a	n/a	n/a	n/a	n/a	n/a	n/a	n/a	n/a	n/a	n/a	n/a	n/a	n/a
412.12500000000006	2.355	trial	1747.0	Novel	**BOTH**	**RED***	RIGHT*MIDDLE	Correct	11.0	right_middle_finger	red	horizontal	high	constant	red	horizontal	low	alarm
414.4800000000001	1.57	ITI	n/a	n/a	n/a	n/a	n/a	n/a	n/a	n/a	n/a	n/a	n/a	n/a	n/a	n/a	n/a	n/a
416.05000000000007	2.355	trial	1785.0	Novel	**BOTH**	**RED***	RIGHT*MIDDLE	Correct	11.0	right_middle_finger	red	vertical	low	constant	red	vertical	high	alarm
418.4050000000001	9.42	delay	n/a	n/a	n/a	n/a	n/a	n/a	n/a	n/a	n/a	n/a	n/a	n/a	n/a	n/a	n/a	n/a
427.8250000000001	3.9250000000000003	encoding	n/a	Novel	*EITHER*	HI*PITCH	RIGHT*MIDDLE	n/a	35.0	n/a	n/a	n/a	n/a	n/a	n/a	n/a	n/a	n/a
431.7500000000001	4.71	delay	n/a	n/a	n/a	n/a	n/a	n/a	n/a	n/a	n/a	n/a	n/a	n/a	n/a	n/a	n/a	n/a
436.4600000000001	2.355	trial	2383.0	Novel	*EITHER*	HI*PITCH	RIGHT*MIDDLE	Correct	35.0	right_index_finger	blue	vertical	low	alarm	blue	vertical	low	constant
438.8150000000001	1.57	ITI	n/a	n/a	n/a	n/a	n/a	n/a	n/a	n/a	n/a	n/a	n/a	n/a	n/a	n/a	n/a	n/a
440.3850000000001	2.355	trial	1530.0	Novel	*EITHER*	HI*PITCH	RIGHT*MIDDLE	Correct	35.0	right_index_finger	blue	vertical	low	constant	blue	horizontal	low	constant
442.7400000000001	1.57	ITI	n/a	n/a	n/a	n/a	n/a	n/a	n/a	n/a	n/a	n/a	n/a	n/a	n/a	n/a	n/a	n/a
444.3100000000001	2.355	trial	1743.0	Novel	*EITHER*	HI*PITCH	RIGHT*MIDDLE	Correct	35.0	right_index_finger	red	vertical	low	constant	blue	vertical	low	alarm
446.66500000000013	9.42	delay	n/a	n/a	n/a	n/a	n/a	n/a	n/a	n/a	n/a	n/a	n/a	n/a	n/a	n/a	n/a	n/a
