onset	duration	task_event	rt_in_ms	task_novelty	logic_rule	sensory_rule	motor_rule	performance	task_id	motor_response	stimulus1_color	stimulus1_orientation	stimulus1_pitch	stimulus1_continuity	stimulus2_color	stimulus2_orientation	stimulus2_pitch	stimulus2_continuity
0.0	3.9250000000000003	delay	n/a	n/a	n/a	n/a	n/a	n/a	n/a	n/a	n/a	n/a	n/a	n/a	n/a	n/a	n/a	n/a
3.9250000000000003	3.9250000000000003	encoding	n/a	Novel	NOT*BOTH	HI*PITCH	*LEFT*INDEX*	n/a	18.0	n/a	n/a	n/a	n/a	n/a	n/a	n/a	n/a	n/a
7.8500000000000005	4.71	delay	n/a	n/a	n/a	n/a	n/a	n/a	n/a	n/a	n/a	n/a	n/a	n/a	n/a	n/a	n/a	n/a
12.56	2.355	trial	2136.0	Novel	NOT*BOTH	HI*PITCH	*LEFT*INDEX*	Correct	18.0	left_index_finger	blue	horizontal	low	alarm	red	vertical	low	alarm
14.915000000000001	1.57	ITI	n/a	n/a	n/a	n/a	n/a	n/a	n/a	n/a	n/a	n/a	n/a	n/a	n/a	n/a	n/a	n/a
16.485	2.355	trial	2268.0	Novel	NOT*BOTH	HI*PITCH	*LEFT*INDEX*	Correct	18.0	left_middle_finger	blue	horizontal	high	constant	red	vertical	high	alarm
18.84	1.57	ITI	n/a	n/a	n/a	n/a	n/a	n/a	n/a	n/a	n/a	n/a	n/a	n/a	n/a	n/a	n/a	n/a
20.41	2.355	trial	2130.0	Novel	NOT*BOTH	HI*PITCH	*LEFT*INDEX*	Correct	18.0	left_middle_finger	blue	vertical	high	alarm	blue	horizontal	high	alarm
22.765	9.42	delay	n/a	n/a	n/a	n/a	n/a	n/a	n/a	n/a	n/a	n/a	n/a	n/a	n/a	n/a	n/a	n/a
32.185	3.9250000000000003	encoding	n/a	Novel	NOT*BOTH	CONSTANT	RIGHT*MIDDLE	n/a	23.0	n/a	n/a	n/a	n/a	n/a	n/a	n/a	n/a	n/a
36.11	2.355	delay	n/a	n/a	n/a	n/a	n/a	n/a	n/a	n/a	n/a	n/a	n/a	n/a	n/a	n/a	n/a	n/a
38.464999999999996	2.355	trial	2960.0	Novel	NOT*BOTH	CONSTANT	RIGHT*MIDDLE	Correct	23.0	right_middle_finger	blue	vertical	high	constant	red	vertical	high	alarm
40.81999999999999	1.57	ITI	n/a	n/a	n/a	n/a	n/a	n/a	n/a	n/a	n/a	n/a	n/a	n/a	n/a	n/a	n/a	n/a
42.38999999999999	2.355	trial	1908.0	Novel	NOT*BOTH	CONSTANT	RIGHT*MIDDLE	Correct	23.0	right_index_finger	blue	horizontal	high	constant	blue	vertical	high	constant
44.74499999999999	1.57	ITI	n/a	n/a	n/a	n/a	n/a	n/a	n/a	n/a	n/a	n/a	n/a	n/a	n/a	n/a	n/a	n/a
46.31499999999999	2.355	trial	947.0	Novel	NOT*BOTH	CONSTANT	RIGHT*MIDDLE	Wrong	23.0	right_index_finger	blue	horizontal	high	alarm	red	vertical	high	constant
48.66999999999999	11.775	delay	n/a	n/a	n/a	n/a	n/a	n/a	n/a	n/a	n/a	n/a	n/a	n/a	n/a	n/a	n/a	n/a
60.444999999999986	3.9250000000000003	encoding	n/a	Novel	*EITHER*	CONSTANT	LEFT*MIDDLE*	n/a	37.0	n/a	n/a	n/a	n/a	n/a	n/a	n/a	n/a	n/a
64.36999999999999	6.28	delay	n/a	n/a	n/a	n/a	n/a	n/a	n/a	n/a	n/a	n/a	n/a	n/a	n/a	n/a	n/a	n/a
70.64999999999999	2.355	trial	1403.0	Novel	*EITHER*	CONSTANT	LEFT*MIDDLE*	Correct	37.0	left_middle_finger	red	horizontal	low	constant	red	vertical	low	alarm
73.005	1.57	ITI	n/a	n/a	n/a	n/a	n/a	n/a	n/a	n/a	n/a	n/a	n/a	n/a	n/a	n/a	n/a	n/a
74.57499999999999	2.355	trial	1665.0	Novel	*EITHER*	CONSTANT	LEFT*MIDDLE*	Correct	37.0	left_middle_finger	red	vertical	low	alarm	red	horizontal	low	constant
76.92999999999999	1.57	ITI	n/a	n/a	n/a	n/a	n/a	n/a	n/a	n/a	n/a	n/a	n/a	n/a	n/a	n/a	n/a	n/a
78.49999999999999	2.355	trial	1039.0	Novel	*EITHER*	CONSTANT	LEFT*MIDDLE*	Correct	37.0	left_middle_finger	red	vertical	high	constant	red	horizontal	high	alarm
80.85499999999999	7.85	delay	n/a	n/a	n/a	n/a	n/a	n/a	n/a	n/a	n/a	n/a	n/a	n/a	n/a	n/a	n/a	n/a
88.70499999999998	3.9250000000000003	encoding	n/a	Novel	**BOTH**	VERTICAL	RIGHT*INDEX*	n/a	16.0	n/a	n/a	n/a	n/a	n/a	n/a	n/a	n/a	n/a
92.62999999999998	1.57	delay	n/a	n/a	n/a	n/a	n/a	n/a	n/a	n/a	n/a	n/a	n/a	n/a	n/a	n/a	n/a	n/a
94.19999999999997	2.355	trial	1766.0	Novel	**BOTH**	VERTICAL	RIGHT*INDEX*	Correct	16.0	right_middle_finger	red	vertical	low	constant	blue	horizontal	high	constant
96.55499999999998	1.57	ITI	n/a	n/a	n/a	n/a	n/a	n/a	n/a	n/a	n/a	n/a	n/a	n/a	n/a	n/a	n/a	n/a
98.12499999999997	2.355	trial	1512.0	Novel	**BOTH**	VERTICAL	RIGHT*INDEX*	Correct	16.0	right_index_finger	blue	vertical	high	alarm	red	vertical	high	constant
100.47999999999998	1.57	ITI	n/a	n/a	n/a	n/a	n/a	n/a	n/a	n/a	n/a	n/a	n/a	n/a	n/a	n/a	n/a	n/a
102.04999999999997	2.355	trial	1599.0	Novel	**BOTH**	VERTICAL	RIGHT*INDEX*	Correct	16.0	right_index_finger	blue	vertical	low	constant	blue	vertical	high	alarm
104.40499999999997	12.56	delay	n/a	n/a	n/a	n/a	n/a	n/a	n/a	n/a	n/a	n/a	n/a	n/a	n/a	n/a	n/a	n/a
116.96499999999997	3.9250000000000003	encoding	n/a	Novel	NEITHER*	HI*PITCH	RIGHT*INDEX*	n/a	52.0	n/a	n/a	n/a	n/a	n/a	n/a	n/a	n/a	n/a
120.88999999999997	2.355	delay	n/a	n/a	n/a	n/a	n/a	n/a	n/a	n/a	n/a	n/a	n/a	n/a	n/a	n/a	n/a	n/a
123.24499999999998	2.355	trial	769.0	Novel	NEITHER*	HI*PITCH	RIGHT*INDEX*	Correct	52.0	right_middle_finger	red	vertical	high	constant	red	vertical	high	alarm
125.59999999999998	1.57	ITI	n/a	n/a	n/a	n/a	n/a	n/a	n/a	n/a	n/a	n/a	n/a	n/a	n/a	n/a	n/a	n/a
127.16999999999997	2.355	trial	1998.0	Novel	NEITHER*	HI*PITCH	RIGHT*INDEX*	Correct	52.0	right_middle_finger	blue	horizontal	high	constant	blue	vertical	high	alarm
129.52499999999998	1.57	ITI	n/a	n/a	n/a	n/a	n/a	n/a	n/a	n/a	n/a	n/a	n/a	n/a	n/a	n/a	n/a	n/a
131.09499999999997	2.355	trial	1663.0	Novel	NEITHER*	HI*PITCH	RIGHT*INDEX*	Correct	52.0	right_index_finger	blue	horizontal	low	alarm	blue	vertical	low	constant
133.44999999999996	11.775	delay	n/a	n/a	n/a	n/a	n/a	n/a	n/a	n/a	n/a	n/a	n/a	n/a	n/a	n/a	n/a	n/a
145.22499999999997	3.9250000000000003	encoding	n/a	Novel	NOT*BOTH	CONSTANT	*LEFT*INDEX*	n/a	22.0	n/a	n/a	n/a	n/a	n/a	n/a	n/a	n/a	n/a
149.14999999999998	5.495	delay	n/a	n/a	n/a	n/a	n/a	n/a	n/a	n/a	n/a	n/a	n/a	n/a	n/a	n/a	n/a	n/a
154.64499999999998	2.355	trial	2041.0	Novel	NOT*BOTH	CONSTANT	*LEFT*INDEX*	Wrong	22.0	left_middle_finger	red	horizontal	low	constant	blue	vertical	high	alarm
156.99999999999997	1.57	ITI	n/a	n/a	n/a	n/a	n/a	n/a	n/a	n/a	n/a	n/a	n/a	n/a	n/a	n/a	n/a	n/a
158.56999999999996	2.355	trial	1470.0	Novel	NOT*BOTH	CONSTANT	*LEFT*INDEX*	Correct	22.0	left_index_finger	blue	horizontal	high	alarm	blue	horizontal	high	alarm
160.92499999999995	1.57	ITI	n/a	n/a	n/a	n/a	n/a	n/a	n/a	n/a	n/a	n/a	n/a	n/a	n/a	n/a	n/a	n/a
162.49499999999995	2.355	trial	1488.0	Novel	NOT*BOTH	CONSTANT	*LEFT*INDEX*	Correct	22.0	left_middle_finger	blue	vertical	high	constant	red	vertical	high	constant
164.84999999999994	8.635	delay	n/a	n/a	n/a	n/a	n/a	n/a	n/a	n/a	n/a	n/a	n/a	n/a	n/a	n/a	n/a	n/a
173.48499999999993	3.9250000000000003	encoding	n/a	Novel	NOT*BOTH	VERTICAL	*LEFT*INDEX*	n/a	30.0	n/a	n/a	n/a	n/a	n/a	n/a	n/a	n/a	n/a
177.40999999999994	1.57	delay	n/a	n/a	n/a	n/a	n/a	n/a	n/a	n/a	n/a	n/a	n/a	n/a	n/a	n/a	n/a	n/a
178.97999999999993	2.355	trial	2937.0	Novel	NOT*BOTH	VERTICAL	*LEFT*INDEX*	Correct	30.0	left_middle_finger	blue	vertical	low	constant	red	vertical	low	constant
181.33499999999992	1.57	ITI	n/a	n/a	n/a	n/a	n/a	n/a	n/a	n/a	n/a	n/a	n/a	n/a	n/a	n/a	n/a	n/a
182.90499999999992	2.355	trial	2060.0	Novel	NOT*BOTH	VERTICAL	*LEFT*INDEX*	Correct	30.0	left_index_finger	blue	vertical	high	constant	blue	horizontal	low	constant
185.2599999999999	1.57	ITI	n/a	n/a	n/a	n/a	n/a	n/a	n/a	n/a	n/a	n/a	n/a	n/a	n/a	n/a	n/a	n/a
186.8299999999999	2.355	trial	1872.0	Novel	NOT*BOTH	VERTICAL	*LEFT*INDEX*	Correct	30.0	left_middle_finger	red	vertical	low	alarm	blue	vertical	high	alarm
189.1849999999999	12.56	delay	n/a	n/a	n/a	n/a	n/a	n/a	n/a	n/a	n/a	n/a	n/a	n/a	n/a	n/a	n/a	n/a
201.7449999999999	3.9250000000000003	encoding	n/a	Novel	*EITHER*	VERTICAL	RIGHT*MIDDLE	n/a	47.0	n/a	n/a	n/a	n/a	n/a	n/a	n/a	n/a	n/a
205.6699999999999	2.355	delay	n/a	n/a	n/a	n/a	n/a	n/a	n/a	n/a	n/a	n/a	n/a	n/a	n/a	n/a	n/a	n/a
208.0249999999999	2.355	trial	1830.0	Novel	*EITHER*	VERTICAL	RIGHT*MIDDLE	Correct	47.0	right_index_finger	blue	horizontal	high	alarm	red	horizontal	high	constant
210.37999999999988	1.57	ITI	n/a	n/a	n/a	n/a	n/a	n/a	n/a	n/a	n/a	n/a	n/a	n/a	n/a	n/a	n/a	n/a
211.94999999999987	2.355	trial	1643.0	Novel	*EITHER*	VERTICAL	RIGHT*MIDDLE	Correct	47.0	right_middle_finger	blue	horizontal	low	alarm	blue	vertical	low	constant
214.30499999999986	1.57	ITI	n/a	n/a	n/a	n/a	n/a	n/a	n/a	n/a	n/a	n/a	n/a	n/a	n/a	n/a	n/a	n/a
215.87499999999986	2.355	trial	1843.0	Novel	*EITHER*	VERTICAL	RIGHT*MIDDLE	Correct	47.0	right_index_finger	blue	horizontal	high	constant	blue	horizontal	high	constant
218.22999999999985	11.775	delay	n/a	n/a	n/a	n/a	n/a	n/a	n/a	n/a	n/a	n/a	n/a	n/a	n/a	n/a	n/a	n/a
230.00499999999985	3.9250000000000003	encoding	n/a	Novel	NEITHER*	**RED***	*LEFT*INDEX*	n/a	58.0	n/a	n/a	n/a	n/a	n/a	n/a	n/a	n/a	n/a
233.92999999999986	3.14	delay	n/a	n/a	n/a	n/a	n/a	n/a	n/a	n/a	n/a	n/a	n/a	n/a	n/a	n/a	n/a	n/a
237.06999999999985	2.355	trial	1725.0	Novel	NEITHER*	**RED***	*LEFT*INDEX*	Correct	58.0	left_index_finger	blue	vertical	high	constant	blue	vertical	high	alarm
239.42499999999984	1.57	ITI	n/a	n/a	n/a	n/a	n/a	n/a	n/a	n/a	n/a	n/a	n/a	n/a	n/a	n/a	n/a	n/a
240.99499999999983	2.355	trial	609.0	Novel	NEITHER*	**RED***	*LEFT*INDEX*	Correct	58.0	left_middle_finger	red	vertical	high	alarm	red	vertical	low	alarm
243.34999999999982	1.57	ITI	n/a	n/a	n/a	n/a	n/a	n/a	n/a	n/a	n/a	n/a	n/a	n/a	n/a	n/a	n/a	n/a
244.91999999999982	2.355	trial	1591.0	Novel	NEITHER*	**RED***	*LEFT*INDEX*	Correct	58.0	left_index_finger	blue	vertical	low	constant	blue	vertical	low	constant
247.2749999999998	10.99	delay	n/a	n/a	n/a	n/a	n/a	n/a	n/a	n/a	n/a	n/a	n/a	n/a	n/a	n/a	n/a	n/a
258.2649999999998	3.9250000000000003	encoding	n/a	Novel	NEITHER*	CONSTANT	LEFT*MIDDLE*	n/a	53.0	n/a	n/a	n/a	n/a	n/a	n/a	n/a	n/a	n/a
262.1899999999998	2.355	delay	n/a	n/a	n/a	n/a	n/a	n/a	n/a	n/a	n/a	n/a	n/a	n/a	n/a	n/a	n/a	n/a
264.54499999999985	2.355	trial	2392.0	Novel	NEITHER*	CONSTANT	LEFT*MIDDLE*	Correct	53.0	left_middle_finger	blue	horizontal	high	alarm	red	vertical	low	alarm
266.89999999999986	1.57	ITI	n/a	n/a	n/a	n/a	n/a	n/a	n/a	n/a	n/a	n/a	n/a	n/a	n/a	n/a	n/a	n/a
268.46999999999986	2.355	trial	2008.0	Novel	NEITHER*	CONSTANT	LEFT*MIDDLE*	Correct	53.0	left_middle_finger	red	vertical	low	alarm	blue	vertical	high	alarm
270.8249999999999	1.57	ITI	n/a	n/a	n/a	n/a	n/a	n/a	n/a	n/a	n/a	n/a	n/a	n/a	n/a	n/a	n/a	n/a
272.39499999999987	2.355	trial	1744.0	Novel	NEITHER*	CONSTANT	LEFT*MIDDLE*	Correct	53.0	left_middle_finger	red	vertical	high	alarm	red	vertical	high	alarm
274.7499999999999	11.775	delay	n/a	n/a	n/a	n/a	n/a	n/a	n/a	n/a	n/a	n/a	n/a	n/a	n/a	n/a	n/a	n/a
286.52499999999986	3.9250000000000003	encoding	n/a	Novel	*EITHER*	HI*PITCH	LEFT*MIDDLE*	n/a	33.0	n/a	n/a	n/a	n/a	n/a	n/a	n/a	n/a	n/a
290.4499999999999	1.57	delay	n/a	n/a	n/a	n/a	n/a	n/a	n/a	n/a	n/a	n/a	n/a	n/a	n/a	n/a	n/a	n/a
292.01999999999987	2.355	trial	838.0	Novel	*EITHER*	HI*PITCH	LEFT*MIDDLE*	Correct	33.0	left_middle_finger	blue	vertical	high	constant	red	horizontal	low	constant
294.3749999999999	1.57	ITI	n/a	n/a	n/a	n/a	n/a	n/a	n/a	n/a	n/a	n/a	n/a	n/a	n/a	n/a	n/a	n/a
295.9449999999999	2.355	trial	1592.0	Novel	*EITHER*	HI*PITCH	LEFT*MIDDLE*	Correct	33.0	left_middle_finger	red	vertical	low	constant	red	vertical	high	constant
298.2999999999999	1.57	ITI	n/a	n/a	n/a	n/a	n/a	n/a	n/a	n/a	n/a	n/a	n/a	n/a	n/a	n/a	n/a	n/a
299.8699999999999	2.355	trial	1657.0	Novel	*EITHER*	HI*PITCH	LEFT*MIDDLE*	Correct	33.0	left_index_finger	blue	horizontal	low	constant	red	horizontal	low	constant
302.2249999999999	12.56	delay	n/a	n/a	n/a	n/a	n/a	n/a	n/a	n/a	n/a	n/a	n/a	n/a	n/a	n/a	n/a	n/a
314.7849999999999	3.9250000000000003	encoding	n/a	Novel	NEITHER*	HI*PITCH	LEFT*MIDDLE*	n/a	49.0	n/a	n/a	n/a	n/a	n/a	n/a	n/a	n/a	n/a
318.7099999999999	2.355	delay	n/a	n/a	n/a	n/a	n/a	n/a	n/a	n/a	n/a	n/a	n/a	n/a	n/a	n/a	n/a	n/a
321.06499999999994	2.355	trial	2465.0	Novel	NEITHER*	HI*PITCH	LEFT*MIDDLE*	Correct	49.0	left_middle_finger	red	horizontal	low	alarm	red	vertical	low	constant
323.41999999999996	1.57	ITI	n/a	n/a	n/a	n/a	n/a	n/a	n/a	n/a	n/a	n/a	n/a	n/a	n/a	n/a	n/a	n/a
324.98999999999995	2.355	trial	1539.0	Novel	NEITHER*	HI*PITCH	LEFT*MIDDLE*	Correct	49.0	left_index_finger	blue	vertical	low	alarm	red	horizontal	high	alarm
327.34499999999997	1.57	ITI	n/a	n/a	n/a	n/a	n/a	n/a	n/a	n/a	n/a	n/a	n/a	n/a	n/a	n/a	n/a	n/a
328.91499999999996	2.355	trial	1664.0	Novel	NEITHER*	HI*PITCH	LEFT*MIDDLE*	Correct	49.0	left_middle_finger	red	horizontal	low	constant	red	horizontal	low	alarm
331.27	11.775	delay	n/a	n/a	n/a	n/a	n/a	n/a	n/a	n/a	n/a	n/a	n/a	n/a	n/a	n/a	n/a	n/a
343.04499999999996	3.9250000000000003	encoding	n/a	Novel	NOT*BOTH	VERTICAL	RIGHT*MIDDLE	n/a	31.0	n/a	n/a	n/a	n/a	n/a	n/a	n/a	n/a	n/a
346.96999999999997	2.355	delay	n/a	n/a	n/a	n/a	n/a	n/a	n/a	n/a	n/a	n/a	n/a	n/a	n/a	n/a	n/a	n/a
349.325	2.355	trial	1865.0	Novel	NOT*BOTH	VERTICAL	RIGHT*MIDDLE	Correct	31.0	right_index_finger	red	vertical	high	constant	red	vertical	high	alarm
351.68	1.57	ITI	n/a	n/a	n/a	n/a	n/a	n/a	n/a	n/a	n/a	n/a	n/a	n/a	n/a	n/a	n/a	n/a
353.25	2.355	trial	1556.0	Novel	NOT*BOTH	VERTICAL	RIGHT*MIDDLE	Correct	31.0	right_middle_finger	red	vertical	high	constant	red	horizontal	high	alarm
355.605	1.57	ITI	n/a	n/a	n/a	n/a	n/a	n/a	n/a	n/a	n/a	n/a	n/a	n/a	n/a	n/a	n/a	n/a
357.175	2.355	trial	1756.0	Novel	NOT*BOTH	VERTICAL	RIGHT*MIDDLE	Correct	31.0	right_middle_finger	red	horizontal	high	constant	red	vertical	high	alarm
359.53000000000003	11.775	delay	n/a	n/a	n/a	n/a	n/a	n/a	n/a	n/a	n/a	n/a	n/a	n/a	n/a	n/a	n/a	n/a
371.305	3.9250000000000003	encoding	n/a	Novel	NEITHER*	VERTICAL	*LEFT*INDEX*	n/a	62.0	n/a	n/a	n/a	n/a	n/a	n/a	n/a	n/a	n/a
375.23	4.71	delay	n/a	n/a	n/a	n/a	n/a	n/a	n/a	n/a	n/a	n/a	n/a	n/a	n/a	n/a	n/a	n/a
379.94	2.355	trial	1690.0	Novel	NEITHER*	VERTICAL	*LEFT*INDEX*	Correct	62.0	left_index_finger	blue	horizontal	high	constant	blue	horizontal	high	constant
382.295	1.57	ITI	n/a	n/a	n/a	n/a	n/a	n/a	n/a	n/a	n/a	n/a	n/a	n/a	n/a	n/a	n/a	n/a
383.865	2.355	trial	1651.0	Novel	NEITHER*	VERTICAL	*LEFT*INDEX*	Correct	62.0	left_index_finger	blue	horizontal	high	constant	blue	horizontal	low	constant
386.22	1.57	ITI	n/a	n/a	n/a	n/a	n/a	n/a	n/a	n/a	n/a	n/a	n/a	n/a	n/a	n/a	n/a	n/a
387.79	2.355	trial	1655.0	Novel	NEITHER*	VERTICAL	*LEFT*INDEX*	Correct	62.0	left_index_finger	red	horizontal	high	alarm	red	horizontal	high	constant
390.14500000000004	9.42	delay	n/a	n/a	n/a	n/a	n/a	n/a	n/a	n/a	n/a	n/a	n/a	n/a	n/a	n/a	n/a	n/a
399.56500000000005	3.9250000000000003	encoding	n/a	Novel	*EITHER*	VERTICAL	*LEFT*INDEX*	n/a	46.0	n/a	n/a	n/a	n/a	n/a	n/a	n/a	n/a	n/a
403.49000000000007	1.57	delay	n/a	n/a	n/a	n/a	n/a	n/a	n/a	n/a	n/a	n/a	n/a	n/a	n/a	n/a	n/a	n/a
405.06000000000006	2.355	trial	1715.0	Novel	*EITHER*	VERTICAL	*LEFT*INDEX*	Correct	46.0	left_index_finger	blue	horizontal	high	constant	red	vertical	low	constant
407.4150000000001	1.57	ITI	n/a	n/a	n/a	n/a	n/a	n/a	n/a	n/a	n/a	n/a	n/a	n/a	n/a	n/a	n/a	n/a
408.98500000000007	2.355	trial	1609.0	Novel	*EITHER*	VERTICAL	*LEFT*INDEX*	Correct	46.0	left_index_finger	red	horizontal	high	constant	blue	vertical	low	alarm
411.3400000000001	1.57	ITI	n/a	n/a	n/a	n/a	n/a	n/a	n/a	n/a	n/a	n/a	n/a	n/a	n/a	n/a	n/a	n/a
412.9100000000001	2.355	trial	543.0	Novel	*EITHER*	VERTICAL	*LEFT*INDEX*	Correct	46.0	left_index_finger	blue	vertical	high	constant	blue	horizontal	low	constant
415.2650000000001	12.56	delay	n/a	n/a	n/a	n/a	n/a	n/a	n/a	n/a	n/a	n/a	n/a	n/a	n/a	n/a	n/a	n/a
427.8250000000001	3.9250000000000003	encoding	n/a	Novel	**BOTH**	VERTICAL	LEFT*MIDDLE*	n/a	13.0	n/a	n/a	n/a	n/a	n/a	n/a	n/a	n/a	n/a
431.7500000000001	3.925	delay	n/a	n/a	n/a	n/a	n/a	n/a	n/a	n/a	n/a	n/a	n/a	n/a	n/a	n/a	n/a	n/a
435.6750000000001	2.355	trial	1722.0	Novel	**BOTH**	VERTICAL	LEFT*MIDDLE*	Correct	13.0	left_middle_finger	red	vertical	high	alarm	red	vertical	high	alarm
438.03000000000014	1.57	ITI	n/a	n/a	n/a	n/a	n/a	n/a	n/a	n/a	n/a	n/a	n/a	n/a	n/a	n/a	n/a	n/a
439.60000000000014	2.355	trial	667.0	Novel	**BOTH**	VERTICAL	LEFT*MIDDLE*	Correct	13.0	left_index_finger	red	horizontal	high	constant	blue	horizontal	high	alarm
441.95500000000015	1.57	ITI	n/a	n/a	n/a	n/a	n/a	n/a	n/a	n/a	n/a	n/a	n/a	n/a	n/a	n/a	n/a	n/a
443.52500000000015	2.355	trial	1681.0	Novel	**BOTH**	VERTICAL	LEFT*MIDDLE*	Correct	13.0	left_middle_finger	red	vertical	low	constant	blue	vertical	high	alarm
445.88000000000017	10.205	delay	n/a	n/a	n/a	n/a	n/a	n/a	n/a	n/a	n/a	n/a	n/a	n/a	n/a	n/a	n/a	n/a
