onset	duration	task_event	rt_in_ms	task_novelty	logic_rule	sensory_rule	motor_rule	performance	task_id	motor_response	stimulus1_color	stimulus1_orientation	stimulus1_pitch	stimulus1_continuity	stimulus2_color	stimulus2_orientation	stimulus2_pitch	stimulus2_continuity
0.0	3.9250000000000003	delay	n/a	n/a	n/a	n/a	n/a	n/a	n/a	n/a	n/a	n/a	n/a	n/a	n/a	n/a	n/a	n/a
3.9250000000000003	3.9250000000000003	encoding	n/a	Novel	*EITHER*	HI*PITCH	RIGHT*INDEX*	n/a	36.0	n/a	n/a	n/a	n/a	n/a	n/a	n/a	n/a	n/a
7.8500000000000005	3.14	delay	n/a	n/a	n/a	n/a	n/a	n/a	n/a	n/a	n/a	n/a	n/a	n/a	n/a	n/a	n/a	n/a
10.99	2.355	trial	884.0	Novel	*EITHER*	HI*PITCH	RIGHT*INDEX*	Correct	36.0	right_index_finger	blue	horizontal	high	alarm	blue	vertical	low	alarm
13.345	1.57	ITI	n/a	n/a	n/a	n/a	n/a	n/a	n/a	n/a	n/a	n/a	n/a	n/a	n/a	n/a	n/a	n/a
14.915000000000001	2.355	trial	1637.0	Novel	*EITHER*	HI*PITCH	RIGHT*INDEX*	Correct	36.0	right_middle_finger	blue	horizontal	low	alarm	red	vertical	low	constant
17.27	1.57	ITI	n/a	n/a	n/a	n/a	n/a	n/a	n/a	n/a	n/a	n/a	n/a	n/a	n/a	n/a	n/a	n/a
18.84	2.355	trial	1715.0	Novel	*EITHER*	HI*PITCH	RIGHT*INDEX*	Correct	36.0	right_middle_finger	red	vertical	low	constant	red	vertical	low	constant
21.195	10.99	delay	n/a	n/a	n/a	n/a	n/a	n/a	n/a	n/a	n/a	n/a	n/a	n/a	n/a	n/a	n/a	n/a
32.185	3.9250000000000003	encoding	n/a	Novel	*EITHER*	CONSTANT	RIGHT*MIDDLE	n/a	39.0	n/a	n/a	n/a	n/a	n/a	n/a	n/a	n/a	n/a
36.11	5.495	delay	n/a	n/a	n/a	n/a	n/a	n/a	n/a	n/a	n/a	n/a	n/a	n/a	n/a	n/a	n/a	n/a
41.605	2.355	trial	2103.0	Novel	*EITHER*	CONSTANT	RIGHT*MIDDLE	Correct	39.0	right_index_finger	red	horizontal	high	alarm	blue	horizontal	low	alarm
43.959999999999994	1.57	ITI	n/a	n/a	n/a	n/a	n/a	n/a	n/a	n/a	n/a	n/a	n/a	n/a	n/a	n/a	n/a	n/a
45.529999999999994	2.355	trial	2042.0	Novel	*EITHER*	CONSTANT	RIGHT*MIDDLE	Correct	39.0	right_index_finger	red	horizontal	high	alarm	red	vertical	low	alarm
47.88499999999999	1.57	ITI	n/a	n/a	n/a	n/a	n/a	n/a	n/a	n/a	n/a	n/a	n/a	n/a	n/a	n/a	n/a	n/a
49.45499999999999	2.355	trial	1769.0	Novel	*EITHER*	CONSTANT	RIGHT*MIDDLE	Correct	39.0	right_index_finger	red	horizontal	high	alarm	red	vertical	low	alarm
51.80999999999999	8.635	delay	n/a	n/a	n/a	n/a	n/a	n/a	n/a	n/a	n/a	n/a	n/a	n/a	n/a	n/a	n/a	n/a
60.444999999999986	3.9250000000000003	encoding	n/a	Novel	NOT*BOTH	VERTICAL	LEFT*MIDDLE*	n/a	29.0	n/a	n/a	n/a	n/a	n/a	n/a	n/a	n/a	n/a
64.36999999999999	1.57	delay	n/a	n/a	n/a	n/a	n/a	n/a	n/a	n/a	n/a	n/a	n/a	n/a	n/a	n/a	n/a	n/a
65.93999999999998	2.355	trial	2823.0	Novel	NOT*BOTH	VERTICAL	LEFT*MIDDLE*	Correct	29.0	left_index_finger	red	vertical	low	alarm	red	vertical	low	alarm
68.29499999999999	1.57	ITI	n/a	n/a	n/a	n/a	n/a	n/a	n/a	n/a	n/a	n/a	n/a	n/a	n/a	n/a	n/a	n/a
69.86499999999998	2.355	trial	2368.0	Novel	NOT*BOTH	VERTICAL	LEFT*MIDDLE*	Correct	29.0	left_index_finger	blue	vertical	high	constant	red	vertical	low	alarm
72.21999999999998	1.57	ITI	n/a	n/a	n/a	n/a	n/a	n/a	n/a	n/a	n/a	n/a	n/a	n/a	n/a	n/a	n/a	n/a
73.78999999999998	2.355	trial	844.0	Novel	NOT*BOTH	VERTICAL	LEFT*MIDDLE*	Correct	29.0	left_middle_finger	red	horizontal	low	constant	red	vertical	high	constant
76.14499999999998	12.56	delay	n/a	n/a	n/a	n/a	n/a	n/a	n/a	n/a	n/a	n/a	n/a	n/a	n/a	n/a	n/a	n/a
88.70499999999998	3.9250000000000003	encoding	n/a	Novel	NEITHER*	**RED***	*LEFT*INDEX*	n/a	58.0	n/a	n/a	n/a	n/a	n/a	n/a	n/a	n/a	n/a
92.62999999999998	3.14	delay	n/a	n/a	n/a	n/a	n/a	n/a	n/a	n/a	n/a	n/a	n/a	n/a	n/a	n/a	n/a	n/a
95.76999999999998	2.355	trial	740.0	Novel	NEITHER*	**RED***	*LEFT*INDEX*	Correct	58.0	left_middle_finger	red	vertical	high	alarm	blue	vertical	low	constant
98.12499999999999	1.57	ITI	n/a	n/a	n/a	n/a	n/a	n/a	n/a	n/a	n/a	n/a	n/a	n/a	n/a	n/a	n/a	n/a
99.69499999999998	2.355	trial	1600.0	Novel	NEITHER*	**RED***	*LEFT*INDEX*	Correct	58.0	left_index_finger	blue	horizontal	high	alarm	blue	horizontal	high	constant
102.04999999999998	1.57	ITI	n/a	n/a	n/a	n/a	n/a	n/a	n/a	n/a	n/a	n/a	n/a	n/a	n/a	n/a	n/a	n/a
103.61999999999998	2.355	trial	1638.0	Novel	NEITHER*	**RED***	*LEFT*INDEX*	Correct	58.0	left_middle_finger	blue	horizontal	high	constant	red	vertical	high	constant
105.97499999999998	10.99	delay	n/a	n/a	n/a	n/a	n/a	n/a	n/a	n/a	n/a	n/a	n/a	n/a	n/a	n/a	n/a	n/a
116.96499999999997	3.9250000000000003	encoding	n/a	Prac	NEITHER*	HI*PITCH	*LEFT*INDEX*	n/a	50.0	n/a	n/a	n/a	n/a	n/a	n/a	n/a	n/a	n/a
120.88999999999997	3.925	delay	n/a	n/a	n/a	n/a	n/a	n/a	n/a	n/a	n/a	n/a	n/a	n/a	n/a	n/a	n/a	n/a
124.81499999999997	2.355	trial	1054.0	Prac	NEITHER*	HI*PITCH	*LEFT*INDEX*	Correct	50.0	left_middle_finger	red	vertical	high	alarm	blue	vertical	low	constant
127.16999999999997	1.57	ITI	n/a	n/a	n/a	n/a	n/a	n/a	n/a	n/a	n/a	n/a	n/a	n/a	n/a	n/a	n/a	n/a
128.73999999999998	2.355	trial	1973.0	Prac	NEITHER*	HI*PITCH	*LEFT*INDEX*	Correct	50.0	left_middle_finger	red	horizontal	low	constant	blue	horizontal	high	constant
131.09499999999997	1.57	ITI	n/a	n/a	n/a	n/a	n/a	n/a	n/a	n/a	n/a	n/a	n/a	n/a	n/a	n/a	n/a	n/a
132.66499999999996	2.355	trial	1382.0	Prac	NEITHER*	HI*PITCH	*LEFT*INDEX*	Correct	50.0	left_middle_finger	blue	vertical	high	constant	blue	horizontal	high	constant
135.01999999999995	10.205	delay	n/a	n/a	n/a	n/a	n/a	n/a	n/a	n/a	n/a	n/a	n/a	n/a	n/a	n/a	n/a	n/a
145.22499999999997	3.9250000000000003	encoding	n/a	Novel	**BOTH**	HI*PITCH	RIGHT*MIDDLE	n/a	3.0	n/a	n/a	n/a	n/a	n/a	n/a	n/a	n/a	n/a
149.14999999999998	4.71	delay	n/a	n/a	n/a	n/a	n/a	n/a	n/a	n/a	n/a	n/a	n/a	n/a	n/a	n/a	n/a	n/a
153.85999999999999	2.355	trial	1975.0	Novel	**BOTH**	HI*PITCH	RIGHT*MIDDLE	Correct	3.0	right_index_finger	blue	vertical	high	alarm	red	horizontal	low	alarm
156.21499999999997	1.57	ITI	n/a	n/a	n/a	n/a	n/a	n/a	n/a	n/a	n/a	n/a	n/a	n/a	n/a	n/a	n/a	n/a
157.78499999999997	2.355	trial	856.0	Novel	**BOTH**	HI*PITCH	RIGHT*MIDDLE	Correct	3.0	right_index_finger	blue	horizontal	low	constant	red	horizontal	low	alarm
160.13999999999996	1.57	ITI	n/a	n/a	n/a	n/a	n/a	n/a	n/a	n/a	n/a	n/a	n/a	n/a	n/a	n/a	n/a	n/a
161.70999999999995	2.355	trial	1633.0	Novel	**BOTH**	HI*PITCH	RIGHT*MIDDLE	Correct	3.0	right_middle_finger	red	horizontal	high	constant	blue	horizontal	high	alarm
164.06499999999994	9.42	delay	n/a	n/a	n/a	n/a	n/a	n/a	n/a	n/a	n/a	n/a	n/a	n/a	n/a	n/a	n/a	n/a
173.48499999999993	3.9250000000000003	encoding	n/a	Novel	*EITHER*	**RED***	RIGHT*INDEX*	n/a	44.0	n/a	n/a	n/a	n/a	n/a	n/a	n/a	n/a	n/a
177.40999999999994	3.925	delay	n/a	n/a	n/a	n/a	n/a	n/a	n/a	n/a	n/a	n/a	n/a	n/a	n/a	n/a	n/a	n/a
181.33499999999995	2.355	trial	2164.0	Novel	*EITHER*	**RED***	RIGHT*INDEX*	Correct	44.0	right_middle_finger	blue	horizontal	low	constant	blue	vertical	high	constant
183.68999999999994	1.57	ITI	n/a	n/a	n/a	n/a	n/a	n/a	n/a	n/a	n/a	n/a	n/a	n/a	n/a	n/a	n/a	n/a
185.25999999999993	2.355	trial	1691.0	Novel	*EITHER*	**RED***	RIGHT*INDEX*	Correct	44.0	right_index_finger	blue	horizontal	low	constant	red	vertical	low	constant
187.61499999999992	1.57	ITI	n/a	n/a	n/a	n/a	n/a	n/a	n/a	n/a	n/a	n/a	n/a	n/a	n/a	n/a	n/a	n/a
189.18499999999992	2.355	trial	1463.0	Novel	*EITHER*	**RED***	RIGHT*INDEX*	Correct	44.0	right_index_finger	red	vertical	high	alarm	red	horizontal	low	alarm
191.5399999999999	10.205	delay	n/a	n/a	n/a	n/a	n/a	n/a	n/a	n/a	n/a	n/a	n/a	n/a	n/a	n/a	n/a	n/a
201.74499999999992	3.9250000000000003	encoding	n/a	Novel	*EITHER*	CONSTANT	RIGHT*INDEX*	n/a	40.0	n/a	n/a	n/a	n/a	n/a	n/a	n/a	n/a	n/a
205.66999999999993	6.28	delay	n/a	n/a	n/a	n/a	n/a	n/a	n/a	n/a	n/a	n/a	n/a	n/a	n/a	n/a	n/a	n/a
211.94999999999993	2.355	trial	2060.0	Novel	*EITHER*	CONSTANT	RIGHT*INDEX*	Correct	40.0	right_index_finger	blue	horizontal	high	alarm	red	vertical	high	constant
214.30499999999992	1.57	ITI	n/a	n/a	n/a	n/a	n/a	n/a	n/a	n/a	n/a	n/a	n/a	n/a	n/a	n/a	n/a	n/a
215.87499999999991	2.355	trial	577.0	Novel	*EITHER*	CONSTANT	RIGHT*INDEX*	Correct	40.0	right_index_finger	blue	horizontal	low	constant	red	vertical	low	alarm
218.2299999999999	1.57	ITI	n/a	n/a	n/a	n/a	n/a	n/a	n/a	n/a	n/a	n/a	n/a	n/a	n/a	n/a	n/a	n/a
219.7999999999999	2.355	trial	503.0	Novel	*EITHER*	CONSTANT	RIGHT*INDEX*	Correct	40.0	right_index_finger	red	horizontal	high	constant	red	horizontal	high	alarm
222.1549999999999	7.85	delay	n/a	n/a	n/a	n/a	n/a	n/a	n/a	n/a	n/a	n/a	n/a	n/a	n/a	n/a	n/a	n/a
230.00499999999988	3.9250000000000003	encoding	n/a	Novel	*EITHER*	CONSTANT	LEFT*MIDDLE*	n/a	37.0	n/a	n/a	n/a	n/a	n/a	n/a	n/a	n/a	n/a
233.9299999999999	6.28	delay	n/a	n/a	n/a	n/a	n/a	n/a	n/a	n/a	n/a	n/a	n/a	n/a	n/a	n/a	n/a	n/a
240.2099999999999	2.355	trial	2255.0	Novel	*EITHER*	CONSTANT	LEFT*MIDDLE*	Correct	37.0	left_index_finger	blue	vertical	high	alarm	blue	horizontal	low	alarm
242.56499999999988	1.57	ITI	n/a	n/a	n/a	n/a	n/a	n/a	n/a	n/a	n/a	n/a	n/a	n/a	n/a	n/a	n/a	n/a
244.13499999999988	2.355	trial	1765.0	Novel	*EITHER*	CONSTANT	LEFT*MIDDLE*	Correct	37.0	left_middle_finger	blue	horizontal	low	alarm	red	vertical	high	constant
246.48999999999987	1.57	ITI	n/a	n/a	n/a	n/a	n/a	n/a	n/a	n/a	n/a	n/a	n/a	n/a	n/a	n/a	n/a	n/a
248.05999999999986	2.355	trial	1912.0	Novel	*EITHER*	CONSTANT	LEFT*MIDDLE*	Correct	37.0	left_index_finger	blue	horizontal	high	alarm	red	vertical	low	alarm
250.41499999999985	7.85	delay	n/a	n/a	n/a	n/a	n/a	n/a	n/a	n/a	n/a	n/a	n/a	n/a	n/a	n/a	n/a	n/a
258.2649999999999	3.9250000000000003	encoding	n/a	Novel	*EITHER*	VERTICAL	RIGHT*INDEX*	n/a	48.0	n/a	n/a	n/a	n/a	n/a	n/a	n/a	n/a	n/a
262.1899999999999	3.14	delay	n/a	n/a	n/a	n/a	n/a	n/a	n/a	n/a	n/a	n/a	n/a	n/a	n/a	n/a	n/a	n/a
265.32999999999987	2.355	trial	904.0	Novel	*EITHER*	VERTICAL	RIGHT*INDEX*	Correct	48.0	right_index_finger	blue	vertical	high	constant	blue	vertical	high	alarm
267.6849999999999	1.57	ITI	n/a	n/a	n/a	n/a	n/a	n/a	n/a	n/a	n/a	n/a	n/a	n/a	n/a	n/a	n/a	n/a
269.2549999999999	2.355	trial	553.0	Novel	*EITHER*	VERTICAL	RIGHT*INDEX*	Correct	48.0	right_index_finger	blue	vertical	low	alarm	blue	vertical	low	constant
271.6099999999999	1.57	ITI	n/a	n/a	n/a	n/a	n/a	n/a	n/a	n/a	n/a	n/a	n/a	n/a	n/a	n/a	n/a	n/a
273.1799999999999	2.355	trial	816.0	Novel	*EITHER*	VERTICAL	RIGHT*INDEX*	Correct	48.0	right_index_finger	blue	vertical	low	constant	blue	vertical	low	constant
275.5349999999999	10.99	delay	n/a	n/a	n/a	n/a	n/a	n/a	n/a	n/a	n/a	n/a	n/a	n/a	n/a	n/a	n/a	n/a
286.5249999999999	3.9250000000000003	encoding	n/a	Novel	NOT*BOTH	HI*PITCH	*LEFT*INDEX*	n/a	18.0	n/a	n/a	n/a	n/a	n/a	n/a	n/a	n/a	n/a
290.44999999999993	3.925	delay	n/a	n/a	n/a	n/a	n/a	n/a	n/a	n/a	n/a	n/a	n/a	n/a	n/a	n/a	n/a	n/a
294.37499999999994	2.355	trial	0.0	Novel	NOT*BOTH	HI*PITCH	*LEFT*INDEX*	No Response	18.0	no_response	blue	horizontal	high	alarm	red	vertical	high	alarm
296.72999999999996	1.57	ITI	n/a	n/a	n/a	n/a	n/a	n/a	n/a	n/a	n/a	n/a	n/a	n/a	n/a	n/a	n/a	n/a
298.29999999999995	2.355	trial	2600.0	Novel	NOT*BOTH	HI*PITCH	*LEFT*INDEX*	Wrong	18.0	left_index_finger	blue	vertical	high	alarm	blue	horizontal	high	constant
300.655	1.57	ITI	n/a	n/a	n/a	n/a	n/a	n/a	n/a	n/a	n/a	n/a	n/a	n/a	n/a	n/a	n/a	n/a
302.22499999999997	2.355	trial	0.0	Novel	NOT*BOTH	HI*PITCH	*LEFT*INDEX*	No Response	18.0	no_response	blue	horizontal	low	alarm	red	vertical	low	constant
304.58	10.205	delay	n/a	n/a	n/a	n/a	n/a	n/a	n/a	n/a	n/a	n/a	n/a	n/a	n/a	n/a	n/a	n/a
314.78499999999997	3.9250000000000003	encoding	n/a	Novel	**BOTH**	CONSTANT	LEFT*MIDDLE*	n/a	5.0	n/a	n/a	n/a	n/a	n/a	n/a	n/a	n/a	n/a
318.71	6.28	delay	n/a	n/a	n/a	n/a	n/a	n/a	n/a	n/a	n/a	n/a	n/a	n/a	n/a	n/a	n/a	n/a
324.98999999999995	2.355	trial	1827.0	Novel	**BOTH**	CONSTANT	LEFT*MIDDLE*	Wrong	5.0	left_middle_finger	red	vertical	low	constant	blue	vertical	low	alarm
327.34499999999997	1.57	ITI	n/a	n/a	n/a	n/a	n/a	n/a	n/a	n/a	n/a	n/a	n/a	n/a	n/a	n/a	n/a	n/a
328.91499999999996	2.355	trial	2049.0	Novel	**BOTH**	CONSTANT	LEFT*MIDDLE*	Correct	5.0	left_index_finger	red	vertical	high	constant	red	horizontal	low	alarm
331.27	1.57	ITI	n/a	n/a	n/a	n/a	n/a	n/a	n/a	n/a	n/a	n/a	n/a	n/a	n/a	n/a	n/a	n/a
332.84	2.355	trial	948.0	Novel	**BOTH**	CONSTANT	LEFT*MIDDLE*	Correct	5.0	left_index_finger	red	horizontal	high	alarm	blue	horizontal	low	constant
335.195	7.85	delay	n/a	n/a	n/a	n/a	n/a	n/a	n/a	n/a	n/a	n/a	n/a	n/a	n/a	n/a	n/a	n/a
343.045	3.9250000000000003	encoding	n/a	Prac	NOT*BOTH	**RED***	RIGHT*INDEX*	n/a	28.0	n/a	n/a	n/a	n/a	n/a	n/a	n/a	n/a	n/a
346.97	4.71	delay	n/a	n/a	n/a	n/a	n/a	n/a	n/a	n/a	n/a	n/a	n/a	n/a	n/a	n/a	n/a	n/a
351.68	2.355	trial	1231.0	Prac	NOT*BOTH	**RED***	RIGHT*INDEX*	Correct	28.0	right_index_finger	blue	horizontal	high	constant	blue	horizontal	low	constant
354.035	1.57	ITI	n/a	n/a	n/a	n/a	n/a	n/a	n/a	n/a	n/a	n/a	n/a	n/a	n/a	n/a	n/a	n/a
355.605	2.355	trial	468.0	Prac	NOT*BOTH	**RED***	RIGHT*INDEX*	Correct	28.0	right_index_finger	blue	horizontal	high	constant	blue	vertical	high	alarm
357.96000000000004	1.57	ITI	n/a	n/a	n/a	n/a	n/a	n/a	n/a	n/a	n/a	n/a	n/a	n/a	n/a	n/a	n/a	n/a
359.53000000000003	2.355	trial	569.0	Prac	NOT*BOTH	**RED***	RIGHT*INDEX*	Correct	28.0	right_index_finger	blue	vertical	high	alarm	red	horizontal	low	constant
361.88500000000005	9.42	delay	n/a	n/a	n/a	n/a	n/a	n/a	n/a	n/a	n/a	n/a	n/a	n/a	n/a	n/a	n/a	n/a
371.30500000000006	3.9250000000000003	encoding	n/a	Novel	**BOTH**	HI*PITCH	RIGHT*INDEX*	n/a	4.0	n/a	n/a	n/a	n/a	n/a	n/a	n/a	n/a	n/a
375.2300000000001	4.71	delay	n/a	n/a	n/a	n/a	n/a	n/a	n/a	n/a	n/a	n/a	n/a	n/a	n/a	n/a	n/a	n/a
379.94000000000005	2.355	trial	2052.0	Novel	**BOTH**	HI*PITCH	RIGHT*INDEX*	Correct	4.0	right_middle_finger	blue	vertical	high	alarm	red	horizontal	low	alarm
382.2950000000001	1.57	ITI	n/a	n/a	n/a	n/a	n/a	n/a	n/a	n/a	n/a	n/a	n/a	n/a	n/a	n/a	n/a	n/a
383.86500000000007	2.355	trial	845.0	Novel	**BOTH**	HI*PITCH	RIGHT*INDEX*	Correct	4.0	right_middle_finger	red	vertical	low	constant	blue	horizontal	low	alarm
386.2200000000001	1.57	ITI	n/a	n/a	n/a	n/a	n/a	n/a	n/a	n/a	n/a	n/a	n/a	n/a	n/a	n/a	n/a	n/a
387.7900000000001	2.355	trial	794.0	Novel	**BOTH**	HI*PITCH	RIGHT*INDEX*	Correct	4.0	right_middle_finger	blue	horizontal	low	alarm	blue	horizontal	high	alarm
390.1450000000001	9.42	delay	n/a	n/a	n/a	n/a	n/a	n/a	n/a	n/a	n/a	n/a	n/a	n/a	n/a	n/a	n/a	n/a
399.5650000000001	3.9250000000000003	encoding	n/a	Novel	NEITHER*	CONSTANT	*LEFT*INDEX*	n/a	54.0	n/a	n/a	n/a	n/a	n/a	n/a	n/a	n/a	n/a
403.4900000000001	3.14	delay	n/a	n/a	n/a	n/a	n/a	n/a	n/a	n/a	n/a	n/a	n/a	n/a	n/a	n/a	n/a	n/a
406.6300000000001	2.355	trial	3115.0	Novel	NEITHER*	CONSTANT	*LEFT*INDEX*	Correct	54.0	left_middle_finger	red	horizontal	high	constant	blue	vertical	high	alarm
408.9850000000001	1.57	ITI	n/a	n/a	n/a	n/a	n/a	n/a	n/a	n/a	n/a	n/a	n/a	n/a	n/a	n/a	n/a	n/a
410.5550000000001	2.355	trial	2554.0	Novel	NEITHER*	CONSTANT	*LEFT*INDEX*	Correct	54.0	left_middle_finger	blue	horizontal	high	constant	blue	horizontal	high	constant
412.91000000000014	1.57	ITI	n/a	n/a	n/a	n/a	n/a	n/a	n/a	n/a	n/a	n/a	n/a	n/a	n/a	n/a	n/a	n/a
414.48000000000013	2.355	trial	0.0	Novel	NEITHER*	CONSTANT	*LEFT*INDEX*	No Response	54.0	no_response	red	vertical	high	alarm	red	horizontal	high	alarm
416.83500000000015	10.99	delay	n/a	n/a	n/a	n/a	n/a	n/a	n/a	n/a	n/a	n/a	n/a	n/a	n/a	n/a	n/a	n/a
427.82500000000016	3.9250000000000003	encoding	n/a	Novel	NOT*BOTH	HI*PITCH	RIGHT*MIDDLE	n/a	19.0	n/a	n/a	n/a	n/a	n/a	n/a	n/a	n/a	n/a
431.75000000000017	3.925	delay	n/a	n/a	n/a	n/a	n/a	n/a	n/a	n/a	n/a	n/a	n/a	n/a	n/a	n/a	n/a	n/a
435.6750000000002	2.355	trial	2567.0	Novel	NOT*BOTH	HI*PITCH	RIGHT*MIDDLE	Wrong	19.0	right_middle_finger	blue	horizontal	high	alarm	red	horizontal	high	alarm
438.0300000000002	1.57	ITI	n/a	n/a	n/a	n/a	n/a	n/a	n/a	n/a	n/a	n/a	n/a	n/a	n/a	n/a	n/a	n/a
439.6000000000002	2.355	trial	962.0	Novel	NOT*BOTH	HI*PITCH	RIGHT*MIDDLE	Wrong	19.0	right_index_finger	blue	vertical	low	constant	blue	vertical	high	alarm
441.9550000000002	1.57	ITI	n/a	n/a	n/a	n/a	n/a	n/a	n/a	n/a	n/a	n/a	n/a	n/a	n/a	n/a	n/a	n/a
443.5250000000002	2.355	trial	2167.0	Novel	NOT*BOTH	HI*PITCH	RIGHT*MIDDLE	Wrong	19.0	right_middle_finger	blue	horizontal	high	alarm	blue	vertical	high	constant
445.8800000000002	10.205	delay	n/a	n/a	n/a	n/a	n/a	n/a	n/a	n/a	n/a	n/a	n/a	n/a	n/a	n/a	n/a	n/a
