onset	duration	task_event	rt_in_ms	task_novelty	logic_rule	sensory_rule	motor_rule	performance	task_id	motor_response	stimulus1_color	stimulus1_orientation	stimulus1_pitch	stimulus1_continuity	stimulus2_color	stimulus2_orientation	stimulus2_pitch	stimulus2_continuity
0.0	3.9250000000000003	delay	n/a	n/a	n/a	n/a	n/a	n/a	n/a	n/a	n/a	n/a	n/a	n/a	n/a	n/a	n/a	n/a
3.9250000000000003	3.9250000000000003	encoding	n/a	Novel	*EITHER*	**RED***	*LEFT*INDEX*	n/a	42.0	n/a	n/a	n/a	n/a	n/a	n/a	n/a	n/a	n/a
7.8500000000000005	1.57	delay	n/a	n/a	n/a	n/a	n/a	n/a	n/a	n/a	n/a	n/a	n/a	n/a	n/a	n/a	n/a	n/a
9.42	2.355	trial	994.0	Novel	*EITHER*	**RED***	*LEFT*INDEX*	Correct	42.0	left_index_finger	red	horizontal	high	constant	red	horizontal	low	alarm
11.775	1.57	ITI	n/a	n/a	n/a	n/a	n/a	n/a	n/a	n/a	n/a	n/a	n/a	n/a	n/a	n/a	n/a	n/a
13.345	2.355	trial	944.0	Novel	*EITHER*	**RED***	*LEFT*INDEX*	Correct	42.0	left_index_finger	red	horizontal	high	alarm	blue	horizontal	low	alarm
15.700000000000001	1.57	ITI	n/a	n/a	n/a	n/a	n/a	n/a	n/a	n/a	n/a	n/a	n/a	n/a	n/a	n/a	n/a	n/a
17.27	2.355	trial	1585.0	Novel	*EITHER*	**RED***	*LEFT*INDEX*	Correct	42.0	left_middle_finger	blue	vertical	high	alarm	blue	vertical	high	constant
19.625	12.56	delay	n/a	n/a	n/a	n/a	n/a	n/a	n/a	n/a	n/a	n/a	n/a	n/a	n/a	n/a	n/a	n/a
32.185	3.9250000000000003	encoding	n/a	Novel	*EITHER*	**RED***	RIGHT*MIDDLE	n/a	43.0	n/a	n/a	n/a	n/a	n/a	n/a	n/a	n/a	n/a
36.11	4.71	delay	n/a	n/a	n/a	n/a	n/a	n/a	n/a	n/a	n/a	n/a	n/a	n/a	n/a	n/a	n/a	n/a
40.82	2.355	trial	1826.0	Novel	*EITHER*	**RED***	RIGHT*MIDDLE	Correct	43.0	right_index_finger	blue	horizontal	low	alarm	blue	vertical	low	constant
43.175	1.57	ITI	n/a	n/a	n/a	n/a	n/a	n/a	n/a	n/a	n/a	n/a	n/a	n/a	n/a	n/a	n/a	n/a
44.745	2.355	trial	2055.0	Novel	*EITHER*	**RED***	RIGHT*MIDDLE	Correct	43.0	right_index_finger	blue	vertical	high	constant	blue	vertical	low	constant
47.099999999999994	1.57	ITI	n/a	n/a	n/a	n/a	n/a	n/a	n/a	n/a	n/a	n/a	n/a	n/a	n/a	n/a	n/a	n/a
48.669999999999995	2.355	trial	1739.0	Novel	*EITHER*	**RED***	RIGHT*MIDDLE	Correct	43.0	right_index_finger	blue	horizontal	low	constant	blue	horizontal	high	alarm
51.02499999999999	9.42	delay	n/a	n/a	n/a	n/a	n/a	n/a	n/a	n/a	n/a	n/a	n/a	n/a	n/a	n/a	n/a	n/a
60.44499999999999	3.9250000000000003	encoding	n/a	Novel	NOT*BOTH	VERTICAL	*LEFT*INDEX*	n/a	30.0	n/a	n/a	n/a	n/a	n/a	n/a	n/a	n/a	n/a
64.36999999999999	5.495	delay	n/a	n/a	n/a	n/a	n/a	n/a	n/a	n/a	n/a	n/a	n/a	n/a	n/a	n/a	n/a	n/a
69.865	2.355	trial	1964.0	Novel	NOT*BOTH	VERTICAL	*LEFT*INDEX*	Correct	30.0	left_index_finger	red	vertical	low	alarm	red	horizontal	low	constant
72.22	1.57	ITI	n/a	n/a	n/a	n/a	n/a	n/a	n/a	n/a	n/a	n/a	n/a	n/a	n/a	n/a	n/a	n/a
73.78999999999999	2.355	trial	1908.0	Novel	NOT*BOTH	VERTICAL	*LEFT*INDEX*	Correct	30.0	left_middle_finger	blue	vertical	high	alarm	red	vertical	low	alarm
76.145	1.57	ITI	n/a	n/a	n/a	n/a	n/a	n/a	n/a	n/a	n/a	n/a	n/a	n/a	n/a	n/a	n/a	n/a
77.71499999999999	2.355	trial	1835.0	Novel	NOT*BOTH	VERTICAL	*LEFT*INDEX*	Correct	30.0	left_middle_finger	blue	vertical	low	constant	red	vertical	low	constant
80.07	8.635	delay	n/a	n/a	n/a	n/a	n/a	n/a	n/a	n/a	n/a	n/a	n/a	n/a	n/a	n/a	n/a	n/a
88.705	3.9250000000000003	encoding	n/a	Novel	*EITHER*	CONSTANT	RIGHT*INDEX*	n/a	40.0	n/a	n/a	n/a	n/a	n/a	n/a	n/a	n/a	n/a
92.63	2.355	delay	n/a	n/a	n/a	n/a	n/a	n/a	n/a	n/a	n/a	n/a	n/a	n/a	n/a	n/a	n/a	n/a
94.985	2.355	trial	2237.0	Novel	*EITHER*	CONSTANT	RIGHT*INDEX*	Correct	40.0	right_middle_finger	red	horizontal	high	alarm	blue	vertical	high	alarm
97.34	1.57	ITI	n/a	n/a	n/a	n/a	n/a	n/a	n/a	n/a	n/a	n/a	n/a	n/a	n/a	n/a	n/a	n/a
98.91	2.355	trial	896.0	Novel	*EITHER*	CONSTANT	RIGHT*INDEX*	Correct	40.0	right_index_finger	blue	vertical	low	constant	red	horizontal	high	constant
101.265	1.57	ITI	n/a	n/a	n/a	n/a	n/a	n/a	n/a	n/a	n/a	n/a	n/a	n/a	n/a	n/a	n/a	n/a
102.835	2.355	trial	1574.0	Novel	*EITHER*	CONSTANT	RIGHT*INDEX*	Correct	40.0	right_index_finger	red	vertical	high	alarm	blue	horizontal	low	constant
105.19	11.775	delay	n/a	n/a	n/a	n/a	n/a	n/a	n/a	n/a	n/a	n/a	n/a	n/a	n/a	n/a	n/a	n/a
116.965	3.9250000000000003	encoding	n/a	Novel	*EITHER*	**RED***	RIGHT*INDEX*	n/a	44.0	n/a	n/a	n/a	n/a	n/a	n/a	n/a	n/a	n/a
120.89	5.495	delay	n/a	n/a	n/a	n/a	n/a	n/a	n/a	n/a	n/a	n/a	n/a	n/a	n/a	n/a	n/a	n/a
126.385	2.355	trial	1826.0	Novel	*EITHER*	**RED***	RIGHT*INDEX*	Correct	44.0	right_index_finger	blue	vertical	high	alarm	red	vertical	low	alarm
128.74	1.57	ITI	n/a	n/a	n/a	n/a	n/a	n/a	n/a	n/a	n/a	n/a	n/a	n/a	n/a	n/a	n/a	n/a
130.31	2.355	trial	678.0	Novel	*EITHER*	**RED***	RIGHT*INDEX*	Correct	44.0	right_index_finger	red	vertical	high	alarm	red	horizontal	low	constant
132.665	1.57	ITI	n/a	n/a	n/a	n/a	n/a	n/a	n/a	n/a	n/a	n/a	n/a	n/a	n/a	n/a	n/a	n/a
134.23499999999999	2.355	trial	1715.0	Novel	*EITHER*	**RED***	RIGHT*INDEX*	Correct	44.0	right_middle_finger	blue	vertical	low	constant	blue	horizontal	high	alarm
136.58999999999997	8.635	delay	n/a	n/a	n/a	n/a	n/a	n/a	n/a	n/a	n/a	n/a	n/a	n/a	n/a	n/a	n/a	n/a
145.22499999999997	3.9250000000000003	encoding	n/a	Novel	NOT*BOTH	CONSTANT	RIGHT*INDEX*	n/a	24.0	n/a	n/a	n/a	n/a	n/a	n/a	n/a	n/a	n/a
149.14999999999998	3.925	delay	n/a	n/a	n/a	n/a	n/a	n/a	n/a	n/a	n/a	n/a	n/a	n/a	n/a	n/a	n/a	n/a
153.075	2.355	trial	2786.0	Novel	NOT*BOTH	CONSTANT	RIGHT*INDEX*	Wrong	24.0	right_index_finger	red	horizontal	low	constant	blue	vertical	high	constant
155.42999999999998	1.57	ITI	n/a	n/a	n/a	n/a	n/a	n/a	n/a	n/a	n/a	n/a	n/a	n/a	n/a	n/a	n/a	n/a
156.99999999999997	2.355	trial	1093.0	Novel	NOT*BOTH	CONSTANT	RIGHT*INDEX*	Correct	24.0	right_index_finger	blue	vertical	high	alarm	blue	vertical	high	alarm
159.35499999999996	1.57	ITI	n/a	n/a	n/a	n/a	n/a	n/a	n/a	n/a	n/a	n/a	n/a	n/a	n/a	n/a	n/a	n/a
160.92499999999995	2.355	trial	1820.0	Novel	NOT*BOTH	CONSTANT	RIGHT*INDEX*	Correct	24.0	right_index_finger	blue	horizontal	low	alarm	red	horizontal	high	constant
163.27999999999994	10.205	delay	n/a	n/a	n/a	n/a	n/a	n/a	n/a	n/a	n/a	n/a	n/a	n/a	n/a	n/a	n/a	n/a
173.48499999999996	3.9250000000000003	encoding	n/a	Novel	*EITHER*	CONSTANT	RIGHT*MIDDLE	n/a	39.0	n/a	n/a	n/a	n/a	n/a	n/a	n/a	n/a	n/a
177.40999999999997	3.14	delay	n/a	n/a	n/a	n/a	n/a	n/a	n/a	n/a	n/a	n/a	n/a	n/a	n/a	n/a	n/a	n/a
180.54999999999995	2.355	trial	610.0	Novel	*EITHER*	CONSTANT	RIGHT*MIDDLE	Correct	39.0	right_middle_finger	blue	vertical	low	constant	blue	horizontal	low	alarm
182.90499999999994	1.57	ITI	n/a	n/a	n/a	n/a	n/a	n/a	n/a	n/a	n/a	n/a	n/a	n/a	n/a	n/a	n/a	n/a
184.47499999999994	2.355	trial	1785.0	Novel	*EITHER*	CONSTANT	RIGHT*MIDDLE	Correct	39.0	right_middle_finger	red	vertical	high	alarm	red	vertical	low	constant
186.82999999999993	1.57	ITI	n/a	n/a	n/a	n/a	n/a	n/a	n/a	n/a	n/a	n/a	n/a	n/a	n/a	n/a	n/a	n/a
188.39999999999992	2.355	trial	0.0	Novel	*EITHER*	CONSTANT	RIGHT*MIDDLE	No Response	39.0	no_response	red	horizontal	low	constant	red	horizontal	low	constant
190.7549999999999	10.99	delay	n/a	n/a	n/a	n/a	n/a	n/a	n/a	n/a	n/a	n/a	n/a	n/a	n/a	n/a	n/a	n/a
201.74499999999992	3.9250000000000003	encoding	n/a	Novel	NEITHER*	**RED***	*LEFT*INDEX*	n/a	58.0	n/a	n/a	n/a	n/a	n/a	n/a	n/a	n/a	n/a
205.66999999999993	6.28	delay	n/a	n/a	n/a	n/a	n/a	n/a	n/a	n/a	n/a	n/a	n/a	n/a	n/a	n/a	n/a	n/a
211.94999999999993	2.355	trial	1946.0	Novel	NEITHER*	**RED***	*LEFT*INDEX*	Correct	58.0	left_index_finger	blue	horizontal	high	alarm	blue	vertical	high	constant
214.30499999999992	1.57	ITI	n/a	n/a	n/a	n/a	n/a	n/a	n/a	n/a	n/a	n/a	n/a	n/a	n/a	n/a	n/a	n/a
215.87499999999991	2.355	trial	1845.0	Novel	NEITHER*	**RED***	*LEFT*INDEX*	Correct	58.0	left_middle_finger	red	vertical	low	constant	blue	vertical	low	constant
218.2299999999999	1.57	ITI	n/a	n/a	n/a	n/a	n/a	n/a	n/a	n/a	n/a	n/a	n/a	n/a	n/a	n/a	n/a	n/a
219.7999999999999	2.355	trial	815.0	Novel	NEITHER*	**RED***	*LEFT*INDEX*	Correct	58.0	left_middle_finger	red	vertical	high	alarm	blue	horizontal	low	alarm
222.1549999999999	7.85	delay	n/a	n/a	n/a	n/a	n/a	n/a	n/a	n/a	n/a	n/a	n/a	n/a	n/a	n/a	n/a	n/a
230.00499999999988	3.9250000000000003	encoding	n/a	Novel	**BOTH**	VERTICAL	*LEFT*INDEX*	n/a	14.0	n/a	n/a	n/a	n/a	n/a	n/a	n/a	n/a	n/a
233.9299999999999	5.495	delay	n/a	n/a	n/a	n/a	n/a	n/a	n/a	n/a	n/a	n/a	n/a	n/a	n/a	n/a	n/a	n/a
239.4249999999999	2.355	trial	2035.0	Novel	**BOTH**	VERTICAL	*LEFT*INDEX*	Correct	14.0	left_index_finger	blue	vertical	high	constant	red	vertical	high	alarm
241.7799999999999	1.57	ITI	n/a	n/a	n/a	n/a	n/a	n/a	n/a	n/a	n/a	n/a	n/a	n/a	n/a	n/a	n/a	n/a
243.34999999999988	2.355	trial	1696.0	Novel	**BOTH**	VERTICAL	*LEFT*INDEX*	Correct	14.0	left_index_finger	red	vertical	high	alarm	blue	vertical	high	constant
245.70499999999987	1.57	ITI	n/a	n/a	n/a	n/a	n/a	n/a	n/a	n/a	n/a	n/a	n/a	n/a	n/a	n/a	n/a	n/a
247.27499999999986	2.355	trial	723.0	Novel	**BOTH**	VERTICAL	*LEFT*INDEX*	Correct	14.0	left_middle_finger	blue	horizontal	high	constant	blue	horizontal	low	constant
249.62999999999985	8.635	delay	n/a	n/a	n/a	n/a	n/a	n/a	n/a	n/a	n/a	n/a	n/a	n/a	n/a	n/a	n/a	n/a
258.2649999999999	3.9250000000000003	encoding	n/a	Novel	**BOTH**	VERTICAL	LEFT*MIDDLE*	n/a	13.0	n/a	n/a	n/a	n/a	n/a	n/a	n/a	n/a	n/a
262.1899999999999	3.14	delay	n/a	n/a	n/a	n/a	n/a	n/a	n/a	n/a	n/a	n/a	n/a	n/a	n/a	n/a	n/a	n/a
265.32999999999987	2.355	trial	2519.0	Novel	**BOTH**	VERTICAL	LEFT*MIDDLE*	Wrong	13.0	left_middle_finger	blue	horizontal	high	constant	blue	vertical	low	alarm
267.6849999999999	1.57	ITI	n/a	n/a	n/a	n/a	n/a	n/a	n/a	n/a	n/a	n/a	n/a	n/a	n/a	n/a	n/a	n/a
269.2549999999999	2.355	trial	0.0	Novel	**BOTH**	VERTICAL	LEFT*MIDDLE*	No Response	13.0	no_response	red	horizontal	high	alarm	blue	vertical	low	alarm
271.6099999999999	1.57	ITI	n/a	n/a	n/a	n/a	n/a	n/a	n/a	n/a	n/a	n/a	n/a	n/a	n/a	n/a	n/a	n/a
273.1799999999999	2.355	trial	107.0	Novel	**BOTH**	VERTICAL	LEFT*MIDDLE*	Wrong	13.0	left_index_finger	blue	vertical	low	alarm	blue	vertical	high	constant
275.5349999999999	10.99	delay	n/a	n/a	n/a	n/a	n/a	n/a	n/a	n/a	n/a	n/a	n/a	n/a	n/a	n/a	n/a	n/a
286.5249999999999	3.9250000000000003	encoding	n/a	Novel	NEITHER*	**RED***	RIGHT*MIDDLE	n/a	59.0	n/a	n/a	n/a	n/a	n/a	n/a	n/a	n/a	n/a
290.44999999999993	2.355	delay	n/a	n/a	n/a	n/a	n/a	n/a	n/a	n/a	n/a	n/a	n/a	n/a	n/a	n/a	n/a	n/a
292.80499999999995	2.355	trial	2451.0	Novel	NEITHER*	**RED***	RIGHT*MIDDLE	Correct	59.0	right_middle_finger	blue	horizontal	high	constant	blue	horizontal	low	alarm
295.15999999999997	1.57	ITI	n/a	n/a	n/a	n/a	n/a	n/a	n/a	n/a	n/a	n/a	n/a	n/a	n/a	n/a	n/a	n/a
296.72999999999996	2.355	trial	1994.0	Novel	NEITHER*	**RED***	RIGHT*MIDDLE	Correct	59.0	right_index_finger	blue	horizontal	high	constant	red	vertical	high	alarm
299.085	1.57	ITI	n/a	n/a	n/a	n/a	n/a	n/a	n/a	n/a	n/a	n/a	n/a	n/a	n/a	n/a	n/a	n/a
300.655	2.355	trial	1992.0	Novel	NEITHER*	**RED***	RIGHT*MIDDLE	Correct	59.0	right_middle_finger	blue	vertical	low	alarm	blue	horizontal	low	constant
303.01	11.775	delay	n/a	n/a	n/a	n/a	n/a	n/a	n/a	n/a	n/a	n/a	n/a	n/a	n/a	n/a	n/a	n/a
314.78499999999997	3.9250000000000003	encoding	n/a	Novel	NEITHER*	CONSTANT	RIGHT*INDEX*	n/a	56.0	n/a	n/a	n/a	n/a	n/a	n/a	n/a	n/a	n/a
318.71	6.28	delay	n/a	n/a	n/a	n/a	n/a	n/a	n/a	n/a	n/a	n/a	n/a	n/a	n/a	n/a	n/a	n/a
324.98999999999995	2.355	trial	2558.0	Novel	NEITHER*	CONSTANT	RIGHT*INDEX*	Correct	56.0	right_index_finger	red	horizontal	low	alarm	red	horizontal	low	alarm
327.34499999999997	1.57	ITI	n/a	n/a	n/a	n/a	n/a	n/a	n/a	n/a	n/a	n/a	n/a	n/a	n/a	n/a	n/a	n/a
328.91499999999996	2.355	trial	2037.0	Novel	NEITHER*	CONSTANT	RIGHT*INDEX*	Correct	56.0	right_index_finger	red	vertical	low	alarm	blue	vertical	high	alarm
331.27	1.57	ITI	n/a	n/a	n/a	n/a	n/a	n/a	n/a	n/a	n/a	n/a	n/a	n/a	n/a	n/a	n/a	n/a
332.84	2.355	trial	2087.0	Novel	NEITHER*	CONSTANT	RIGHT*INDEX*	Correct	56.0	right_index_finger	red	horizontal	high	alarm	red	horizontal	high	alarm
335.195	7.85	delay	n/a	n/a	n/a	n/a	n/a	n/a	n/a	n/a	n/a	n/a	n/a	n/a	n/a	n/a	n/a	n/a
343.045	3.9250000000000003	encoding	n/a	Novel	*EITHER*	VERTICAL	LEFT*MIDDLE*	n/a	45.0	n/a	n/a	n/a	n/a	n/a	n/a	n/a	n/a	n/a
346.97	6.28	delay	n/a	n/a	n/a	n/a	n/a	n/a	n/a	n/a	n/a	n/a	n/a	n/a	n/a	n/a	n/a	n/a
353.25	2.355	trial	1608.0	Novel	*EITHER*	VERTICAL	LEFT*MIDDLE*	Wrong	45.0	left_middle_finger	red	horizontal	high	constant	red	horizontal	high	alarm
355.605	1.57	ITI	n/a	n/a	n/a	n/a	n/a	n/a	n/a	n/a	n/a	n/a	n/a	n/a	n/a	n/a	n/a	n/a
357.175	2.355	trial	2507.0	Novel	*EITHER*	VERTICAL	LEFT*MIDDLE*	Correct	45.0	left_middle_finger	red	vertical	low	constant	red	horizontal	low	alarm
359.53000000000003	1.57	ITI	n/a	n/a	n/a	n/a	n/a	n/a	n/a	n/a	n/a	n/a	n/a	n/a	n/a	n/a	n/a	n/a
361.1	2.355	trial	1392.0	Novel	*EITHER*	VERTICAL	LEFT*MIDDLE*	Wrong	45.0	left_index_finger	blue	vertical	low	constant	blue	horizontal	low	constant
363.45500000000004	7.85	delay	n/a	n/a	n/a	n/a	n/a	n/a	n/a	n/a	n/a	n/a	n/a	n/a	n/a	n/a	n/a	n/a
371.30500000000006	3.9250000000000003	encoding	n/a	Novel	NOT*BOTH	**RED***	RIGHT*MIDDLE	n/a	27.0	n/a	n/a	n/a	n/a	n/a	n/a	n/a	n/a	n/a
375.2300000000001	5.495	delay	n/a	n/a	n/a	n/a	n/a	n/a	n/a	n/a	n/a	n/a	n/a	n/a	n/a	n/a	n/a	n/a
380.7250000000001	2.355	trial	1970.0	Novel	NOT*BOTH	**RED***	RIGHT*MIDDLE	Correct	27.0	right_index_finger	red	horizontal	low	alarm	red	vertical	high	constant
383.0800000000001	1.57	ITI	n/a	n/a	n/a	n/a	n/a	n/a	n/a	n/a	n/a	n/a	n/a	n/a	n/a	n/a	n/a	n/a
384.6500000000001	2.355	trial	846.0	Novel	NOT*BOTH	**RED***	RIGHT*MIDDLE	Correct	27.0	right_middle_finger	blue	horizontal	low	alarm	red	vertical	high	alarm
387.0050000000001	1.57	ITI	n/a	n/a	n/a	n/a	n/a	n/a	n/a	n/a	n/a	n/a	n/a	n/a	n/a	n/a	n/a	n/a
388.5750000000001	2.355	trial	857.0	Novel	NOT*BOTH	**RED***	RIGHT*MIDDLE	Correct	27.0	right_middle_finger	blue	vertical	low	constant	blue	horizontal	high	alarm
390.9300000000001	8.635	delay	n/a	n/a	n/a	n/a	n/a	n/a	n/a	n/a	n/a	n/a	n/a	n/a	n/a	n/a	n/a	n/a
399.5650000000001	3.9250000000000003	encoding	n/a	Novel	**BOTH**	**RED***	*LEFT*INDEX*	n/a	10.0	n/a	n/a	n/a	n/a	n/a	n/a	n/a	n/a	n/a
403.4900000000001	3.14	delay	n/a	n/a	n/a	n/a	n/a	n/a	n/a	n/a	n/a	n/a	n/a	n/a	n/a	n/a	n/a	n/a
406.6300000000001	2.355	trial	1871.0	Novel	**BOTH**	**RED***	*LEFT*INDEX*	Correct	10.0	left_index_finger	red	vertical	high	constant	red	vertical	high	alarm
408.9850000000001	1.57	ITI	n/a	n/a	n/a	n/a	n/a	n/a	n/a	n/a	n/a	n/a	n/a	n/a	n/a	n/a	n/a	n/a
410.5550000000001	2.355	trial	1668.0	Novel	**BOTH**	**RED***	*LEFT*INDEX*	Correct	10.0	left_index_finger	red	horizontal	low	alarm	red	horizontal	high	alarm
412.91000000000014	1.57	ITI	n/a	n/a	n/a	n/a	n/a	n/a	n/a	n/a	n/a	n/a	n/a	n/a	n/a	n/a	n/a	n/a
414.48000000000013	2.355	trial	737.0	Novel	**BOTH**	**RED***	*LEFT*INDEX*	Correct	10.0	left_middle_finger	blue	vertical	low	alarm	blue	horizontal	high	constant
416.83500000000015	10.99	delay	n/a	n/a	n/a	n/a	n/a	n/a	n/a	n/a	n/a	n/a	n/a	n/a	n/a	n/a	n/a	n/a
427.82500000000016	3.9250000000000003	encoding	n/a	Novel	*EITHER*	CONSTANT	*LEFT*INDEX*	n/a	38.0	n/a	n/a	n/a	n/a	n/a	n/a	n/a	n/a	n/a
431.75000000000017	3.925	delay	n/a	n/a	n/a	n/a	n/a	n/a	n/a	n/a	n/a	n/a	n/a	n/a	n/a	n/a	n/a	n/a
435.6750000000002	2.355	trial	2494.0	Novel	*EITHER*	CONSTANT	*LEFT*INDEX*	Correct	38.0	left_middle_finger	blue	horizontal	high	alarm	red	vertical	high	alarm
438.0300000000002	1.57	ITI	n/a	n/a	n/a	n/a	n/a	n/a	n/a	n/a	n/a	n/a	n/a	n/a	n/a	n/a	n/a	n/a
439.6000000000002	2.355	trial	1530.0	Novel	*EITHER*	CONSTANT	*LEFT*INDEX*	Correct	38.0	left_index_finger	blue	vertical	low	constant	blue	vertical	low	alarm
441.9550000000002	1.57	ITI	n/a	n/a	n/a	n/a	n/a	n/a	n/a	n/a	n/a	n/a	n/a	n/a	n/a	n/a	n/a	n/a
443.5250000000002	2.355	trial	1796.0	Novel	*EITHER*	CONSTANT	*LEFT*INDEX*	Correct	38.0	left_middle_finger	red	vertical	high	alarm	red	vertical	high	alarm
445.8800000000002	10.205	delay	n/a	n/a	n/a	n/a	n/a	n/a	n/a	n/a	n/a	n/a	n/a	n/a	n/a	n/a	n/a	n/a
