onset	duration	task_event	rt_in_ms	task_novelty	logic_rule	sensory_rule	motor_rule	performance	task_id	motor_response	stimulus1_color	stimulus1_orientation	stimulus1_pitch	stimulus1_continuity	stimulus2_color	stimulus2_orientation	stimulus2_pitch	stimulus2_continuity
0.0	3.9250000000000003	delay	n/a	n/a	n/a	n/a	n/a	n/a	n/a	n/a	n/a	n/a	n/a	n/a	n/a	n/a	n/a	n/a
3.9250000000000003	3.9250000000000003	encoding	n/a	Prac	NEITHER*	**RED***	RIGHT*INDEX*	n/a	60.0	n/a	n/a	n/a	n/a	n/a	n/a	n/a	n/a	n/a
7.8500000000000005	3.14	delay	n/a	n/a	n/a	n/a	n/a	n/a	n/a	n/a	n/a	n/a	n/a	n/a	n/a	n/a	n/a	n/a
10.99	2.355	trial	1832.0	Prac	NEITHER*	**RED***	RIGHT*INDEX*	Correct	60.0	right_index_finger	blue	vertical	low	constant	blue	horizontal	low	constant
13.345	1.57	ITI	n/a	n/a	n/a	n/a	n/a	n/a	n/a	n/a	n/a	n/a	n/a	n/a	n/a	n/a	n/a	n/a
14.915000000000001	2.355	trial	724.0	Prac	NEITHER*	**RED***	RIGHT*INDEX*	Correct	60.0	right_middle_finger	red	horizontal	low	alarm	red	vertical	high	alarm
17.27	1.57	ITI	n/a	n/a	n/a	n/a	n/a	n/a	n/a	n/a	n/a	n/a	n/a	n/a	n/a	n/a	n/a	n/a
18.84	2.355	trial	1877.0	Prac	NEITHER*	**RED***	RIGHT*INDEX*	Correct	60.0	right_index_finger	blue	horizontal	high	alarm	blue	horizontal	high	alarm
21.195	10.99	delay	n/a	n/a	n/a	n/a	n/a	n/a	n/a	n/a	n/a	n/a	n/a	n/a	n/a	n/a	n/a	n/a
32.185	3.9250000000000003	encoding	n/a	Novel	NOT*BOTH	VERTICAL	RIGHT*MIDDLE	n/a	31.0	n/a	n/a	n/a	n/a	n/a	n/a	n/a	n/a	n/a
36.11	6.28	delay	n/a	n/a	n/a	n/a	n/a	n/a	n/a	n/a	n/a	n/a	n/a	n/a	n/a	n/a	n/a	n/a
42.39	2.355	trial	1206.0	Novel	NOT*BOTH	VERTICAL	RIGHT*MIDDLE	Correct	31.0	right_index_finger	red	vertical	low	alarm	red	vertical	high	constant
44.745	1.57	ITI	n/a	n/a	n/a	n/a	n/a	n/a	n/a	n/a	n/a	n/a	n/a	n/a	n/a	n/a	n/a	n/a
46.315	2.355	trial	877.0	Novel	NOT*BOTH	VERTICAL	RIGHT*MIDDLE	Correct	31.0	right_index_finger	red	vertical	high	constant	red	vertical	low	alarm
48.669999999999995	1.57	ITI	n/a	n/a	n/a	n/a	n/a	n/a	n/a	n/a	n/a	n/a	n/a	n/a	n/a	n/a	n/a	n/a
50.239999999999995	2.355	trial	674.0	Novel	NOT*BOTH	VERTICAL	RIGHT*MIDDLE	Correct	31.0	right_index_finger	blue	vertical	low	constant	red	vertical	low	alarm
52.59499999999999	7.85	delay	n/a	n/a	n/a	n/a	n/a	n/a	n/a	n/a	n/a	n/a	n/a	n/a	n/a	n/a	n/a	n/a
60.44499999999999	3.9250000000000003	encoding	n/a	Novel	*EITHER*	**RED***	LEFT*MIDDLE*	n/a	41.0	n/a	n/a	n/a	n/a	n/a	n/a	n/a	n/a	n/a
64.36999999999999	4.71	delay	n/a	n/a	n/a	n/a	n/a	n/a	n/a	n/a	n/a	n/a	n/a	n/a	n/a	n/a	n/a	n/a
69.07999999999998	2.355	trial	1900.0	Novel	*EITHER*	**RED***	LEFT*MIDDLE*	Correct	41.0	left_index_finger	blue	vertical	high	alarm	blue	vertical	high	alarm
71.43499999999999	1.57	ITI	n/a	n/a	n/a	n/a	n/a	n/a	n/a	n/a	n/a	n/a	n/a	n/a	n/a	n/a	n/a	n/a
73.00499999999998	2.355	trial	1639.0	Novel	*EITHER*	**RED***	LEFT*MIDDLE*	Correct	41.0	left_index_finger	blue	horizontal	low	constant	blue	vertical	low	constant
75.35999999999999	1.57	ITI	n/a	n/a	n/a	n/a	n/a	n/a	n/a	n/a	n/a	n/a	n/a	n/a	n/a	n/a	n/a	n/a
76.92999999999998	2.355	trial	1630.0	Novel	*EITHER*	**RED***	LEFT*MIDDLE*	Correct	41.0	left_index_finger	blue	vertical	low	constant	blue	vertical	low	constant
79.28499999999998	9.42	delay	n/a	n/a	n/a	n/a	n/a	n/a	n/a	n/a	n/a	n/a	n/a	n/a	n/a	n/a	n/a	n/a
88.70499999999998	3.9250000000000003	encoding	n/a	Novel	*EITHER*	HI*PITCH	LEFT*MIDDLE*	n/a	33.0	n/a	n/a	n/a	n/a	n/a	n/a	n/a	n/a	n/a
92.62999999999998	4.71	delay	n/a	n/a	n/a	n/a	n/a	n/a	n/a	n/a	n/a	n/a	n/a	n/a	n/a	n/a	n/a	n/a
97.33999999999997	2.355	trial	1889.0	Novel	*EITHER*	HI*PITCH	LEFT*MIDDLE*	Correct	33.0	left_index_finger	blue	vertical	low	alarm	blue	vertical	low	alarm
99.69499999999998	1.57	ITI	n/a	n/a	n/a	n/a	n/a	n/a	n/a	n/a	n/a	n/a	n/a	n/a	n/a	n/a	n/a	n/a
101.26499999999997	2.355	trial	607.0	Novel	*EITHER*	HI*PITCH	LEFT*MIDDLE*	Correct	33.0	left_middle_finger	blue	vertical	high	alarm	red	vertical	high	alarm
103.61999999999998	1.57	ITI	n/a	n/a	n/a	n/a	n/a	n/a	n/a	n/a	n/a	n/a	n/a	n/a	n/a	n/a	n/a	n/a
105.18999999999997	2.355	trial	1668.0	Novel	*EITHER*	HI*PITCH	LEFT*MIDDLE*	Correct	33.0	left_middle_finger	blue	horizontal	low	alarm	blue	vertical	high	constant
107.54499999999997	9.42	delay	n/a	n/a	n/a	n/a	n/a	n/a	n/a	n/a	n/a	n/a	n/a	n/a	n/a	n/a	n/a	n/a
116.96499999999997	3.9250000000000003	encoding	n/a	Novel	**BOTH**	VERTICAL	*LEFT*INDEX*	n/a	14.0	n/a	n/a	n/a	n/a	n/a	n/a	n/a	n/a	n/a
120.88999999999997	5.495	delay	n/a	n/a	n/a	n/a	n/a	n/a	n/a	n/a	n/a	n/a	n/a	n/a	n/a	n/a	n/a	n/a
126.38499999999998	2.355	trial	577.0	Novel	**BOTH**	VERTICAL	*LEFT*INDEX*	Correct	14.0	left_middle_finger	blue	horizontal	low	alarm	blue	horizontal	low	alarm
128.73999999999998	1.57	ITI	n/a	n/a	n/a	n/a	n/a	n/a	n/a	n/a	n/a	n/a	n/a	n/a	n/a	n/a	n/a	n/a
130.30999999999997	2.355	trial	1747.0	Novel	**BOTH**	VERTICAL	*LEFT*INDEX*	Correct	14.0	left_index_finger	blue	vertical	low	alarm	blue	vertical	high	constant
132.66499999999996	1.57	ITI	n/a	n/a	n/a	n/a	n/a	n/a	n/a	n/a	n/a	n/a	n/a	n/a	n/a	n/a	n/a	n/a
134.23499999999996	2.355	trial	1696.0	Novel	**BOTH**	VERTICAL	*LEFT*INDEX*	Correct	14.0	left_index_finger	blue	vertical	high	constant	red	vertical	high	alarm
136.58999999999995	8.635	delay	n/a	n/a	n/a	n/a	n/a	n/a	n/a	n/a	n/a	n/a	n/a	n/a	n/a	n/a	n/a	n/a
145.22499999999994	3.9250000000000003	encoding	n/a	Novel	NOT*BOTH	VERTICAL	*LEFT*INDEX*	n/a	30.0	n/a	n/a	n/a	n/a	n/a	n/a	n/a	n/a	n/a
149.14999999999995	5.495	delay	n/a	n/a	n/a	n/a	n/a	n/a	n/a	n/a	n/a	n/a	n/a	n/a	n/a	n/a	n/a	n/a
154.64499999999995	2.355	trial	2023.0	Novel	NOT*BOTH	VERTICAL	*LEFT*INDEX*	Wrong	30.0	left_middle_finger	red	horizontal	low	constant	red	vertical	low	alarm
156.99999999999994	1.57	ITI	n/a	n/a	n/a	n/a	n/a	n/a	n/a	n/a	n/a	n/a	n/a	n/a	n/a	n/a	n/a	n/a
158.56999999999994	2.355	trial	1248.0	Novel	NOT*BOTH	VERTICAL	*LEFT*INDEX*	Correct	30.0	left_middle_finger	blue	vertical	low	alarm	blue	vertical	high	alarm
160.92499999999993	1.57	ITI	n/a	n/a	n/a	n/a	n/a	n/a	n/a	n/a	n/a	n/a	n/a	n/a	n/a	n/a	n/a	n/a
162.49499999999992	2.355	trial	1748.0	Novel	NOT*BOTH	VERTICAL	*LEFT*INDEX*	Wrong	30.0	left_middle_finger	blue	horizontal	low	constant	red	vertical	low	alarm
164.8499999999999	8.635	delay	n/a	n/a	n/a	n/a	n/a	n/a	n/a	n/a	n/a	n/a	n/a	n/a	n/a	n/a	n/a	n/a
173.4849999999999	3.9250000000000003	encoding	n/a	Novel	NOT*BOTH	**RED***	RIGHT*INDEX*	n/a	28.0	n/a	n/a	n/a	n/a	n/a	n/a	n/a	n/a	n/a
177.4099999999999	2.355	delay	n/a	n/a	n/a	n/a	n/a	n/a	n/a	n/a	n/a	n/a	n/a	n/a	n/a	n/a	n/a	n/a
179.7649999999999	2.355	trial	781.0	Novel	NOT*BOTH	**RED***	RIGHT*INDEX*	Correct	28.0	right_middle_finger	red	vertical	high	constant	red	vertical	high	constant
182.1199999999999	1.57	ITI	n/a	n/a	n/a	n/a	n/a	n/a	n/a	n/a	n/a	n/a	n/a	n/a	n/a	n/a	n/a	n/a
183.68999999999988	2.355	trial	637.0	Novel	NOT*BOTH	**RED***	RIGHT*INDEX*	Correct	28.0	right_middle_finger	red	horizontal	low	alarm	red	vertical	high	alarm
186.04499999999987	1.57	ITI	n/a	n/a	n/a	n/a	n/a	n/a	n/a	n/a	n/a	n/a	n/a	n/a	n/a	n/a	n/a	n/a
187.61499999999987	2.355	trial	1696.0	Novel	NOT*BOTH	**RED***	RIGHT*INDEX*	Correct	28.0	right_index_finger	blue	horizontal	high	constant	blue	horizontal	high	constant
189.96999999999986	11.775	delay	n/a	n/a	n/a	n/a	n/a	n/a	n/a	n/a	n/a	n/a	n/a	n/a	n/a	n/a	n/a	n/a
201.74499999999986	3.9250000000000003	encoding	n/a	Novel	**BOTH**	VERTICAL	RIGHT*INDEX*	n/a	16.0	n/a	n/a	n/a	n/a	n/a	n/a	n/a	n/a	n/a
205.66999999999987	5.495	delay	n/a	n/a	n/a	n/a	n/a	n/a	n/a	n/a	n/a	n/a	n/a	n/a	n/a	n/a	n/a	n/a
211.16499999999988	2.355	trial	1851.0	Novel	**BOTH**	VERTICAL	RIGHT*INDEX*	Correct	16.0	right_index_finger	blue	vertical	low	constant	blue	vertical	high	alarm
213.51999999999987	1.57	ITI	n/a	n/a	n/a	n/a	n/a	n/a	n/a	n/a	n/a	n/a	n/a	n/a	n/a	n/a	n/a	n/a
215.08999999999986	2.355	trial	1619.0	Novel	**BOTH**	VERTICAL	RIGHT*INDEX*	Correct	16.0	right_index_finger	blue	vertical	low	alarm	blue	vertical	low	constant
217.44499999999985	1.57	ITI	n/a	n/a	n/a	n/a	n/a	n/a	n/a	n/a	n/a	n/a	n/a	n/a	n/a	n/a	n/a	n/a
219.01499999999984	2.355	trial	1681.0	Novel	**BOTH**	VERTICAL	RIGHT*INDEX*	Correct	16.0	right_index_finger	red	vertical	low	alarm	blue	vertical	low	alarm
221.36999999999983	8.635	delay	n/a	n/a	n/a	n/a	n/a	n/a	n/a	n/a	n/a	n/a	n/a	n/a	n/a	n/a	n/a	n/a
230.00499999999982	3.9250000000000003	encoding	n/a	Novel	NEITHER*	CONSTANT	RIGHT*INDEX*	n/a	56.0	n/a	n/a	n/a	n/a	n/a	n/a	n/a	n/a	n/a
233.92999999999984	5.495	delay	n/a	n/a	n/a	n/a	n/a	n/a	n/a	n/a	n/a	n/a	n/a	n/a	n/a	n/a	n/a	n/a
239.42499999999984	2.355	trial	1984.0	Novel	NEITHER*	CONSTANT	RIGHT*INDEX*	Correct	56.0	right_index_finger	blue	vertical	high	alarm	red	horizontal	high	alarm
241.77999999999983	1.57	ITI	n/a	n/a	n/a	n/a	n/a	n/a	n/a	n/a	n/a	n/a	n/a	n/a	n/a	n/a	n/a	n/a
243.34999999999982	2.355	trial	1721.0	Novel	NEITHER*	CONSTANT	RIGHT*INDEX*	Correct	56.0	right_index_finger	blue	horizontal	low	alarm	blue	vertical	high	alarm
245.7049999999998	1.57	ITI	n/a	n/a	n/a	n/a	n/a	n/a	n/a	n/a	n/a	n/a	n/a	n/a	n/a	n/a	n/a	n/a
247.2749999999998	2.355	trial	1866.0	Novel	NEITHER*	CONSTANT	RIGHT*INDEX*	Correct	56.0	right_middle_finger	blue	vertical	high	alarm	red	horizontal	high	constant
249.6299999999998	8.635	delay	n/a	n/a	n/a	n/a	n/a	n/a	n/a	n/a	n/a	n/a	n/a	n/a	n/a	n/a	n/a	n/a
258.2649999999998	3.9250000000000003	encoding	n/a	Novel	*EITHER*	VERTICAL	RIGHT*INDEX*	n/a	48.0	n/a	n/a	n/a	n/a	n/a	n/a	n/a	n/a	n/a
262.1899999999998	3.925	delay	n/a	n/a	n/a	n/a	n/a	n/a	n/a	n/a	n/a	n/a	n/a	n/a	n/a	n/a	n/a	n/a
266.11499999999984	2.355	trial	1771.0	Novel	*EITHER*	VERTICAL	RIGHT*INDEX*	Correct	48.0	right_middle_finger	red	horizontal	high	alarm	blue	horizontal	low	constant
268.46999999999986	1.57	ITI	n/a	n/a	n/a	n/a	n/a	n/a	n/a	n/a	n/a	n/a	n/a	n/a	n/a	n/a	n/a	n/a
270.03999999999985	2.355	trial	1663.0	Novel	*EITHER*	VERTICAL	RIGHT*INDEX*	Correct	48.0	right_middle_finger	blue	horizontal	high	constant	blue	horizontal	low	alarm
272.39499999999987	1.57	ITI	n/a	n/a	n/a	n/a	n/a	n/a	n/a	n/a	n/a	n/a	n/a	n/a	n/a	n/a	n/a	n/a
273.96499999999986	2.355	trial	1606.0	Novel	*EITHER*	VERTICAL	RIGHT*INDEX*	Correct	48.0	right_middle_finger	blue	horizontal	low	constant	red	horizontal	high	alarm
276.3199999999999	10.205	delay	n/a	n/a	n/a	n/a	n/a	n/a	n/a	n/a	n/a	n/a	n/a	n/a	n/a	n/a	n/a	n/a
286.52499999999986	3.9250000000000003	encoding	n/a	Novel	**BOTH**	**RED***	RIGHT*INDEX*	n/a	12.0	n/a	n/a	n/a	n/a	n/a	n/a	n/a	n/a	n/a
290.4499999999999	3.14	delay	n/a	n/a	n/a	n/a	n/a	n/a	n/a	n/a	n/a	n/a	n/a	n/a	n/a	n/a	n/a	n/a
293.58999999999986	2.355	trial	1861.0	Novel	**BOTH**	**RED***	RIGHT*INDEX*	Correct	12.0	right_middle_finger	red	horizontal	low	constant	blue	horizontal	low	alarm
295.9449999999999	1.57	ITI	n/a	n/a	n/a	n/a	n/a	n/a	n/a	n/a	n/a	n/a	n/a	n/a	n/a	n/a	n/a	n/a
297.5149999999999	2.355	trial	1735.0	Novel	**BOTH**	**RED***	RIGHT*INDEX*	Correct	12.0	right_index_finger	red	horizontal	high	alarm	red	vertical	high	alarm
299.8699999999999	1.57	ITI	n/a	n/a	n/a	n/a	n/a	n/a	n/a	n/a	n/a	n/a	n/a	n/a	n/a	n/a	n/a	n/a
301.4399999999999	2.355	trial	1826.0	Novel	**BOTH**	**RED***	RIGHT*INDEX*	Correct	12.0	right_index_finger	red	vertical	high	alarm	red	horizontal	low	constant
303.7949999999999	10.99	delay	n/a	n/a	n/a	n/a	n/a	n/a	n/a	n/a	n/a	n/a	n/a	n/a	n/a	n/a	n/a	n/a
314.7849999999999	3.9250000000000003	encoding	n/a	Novel	*EITHER*	HI*PITCH	RIGHT*MIDDLE	n/a	35.0	n/a	n/a	n/a	n/a	n/a	n/a	n/a	n/a	n/a
318.7099999999999	1.57	delay	n/a	n/a	n/a	n/a	n/a	n/a	n/a	n/a	n/a	n/a	n/a	n/a	n/a	n/a	n/a	n/a
320.2799999999999	2.355	trial	921.0	Novel	*EITHER*	HI*PITCH	RIGHT*MIDDLE	Correct	35.0	right_middle_finger	red	vertical	high	alarm	blue	horizontal	low	alarm
322.63499999999993	1.57	ITI	n/a	n/a	n/a	n/a	n/a	n/a	n/a	n/a	n/a	n/a	n/a	n/a	n/a	n/a	n/a	n/a
324.2049999999999	2.355	trial	1779.0	Novel	*EITHER*	HI*PITCH	RIGHT*MIDDLE	Correct	35.0	right_index_finger	blue	vertical	low	alarm	red	horizontal	low	constant
326.55999999999995	1.57	ITI	n/a	n/a	n/a	n/a	n/a	n/a	n/a	n/a	n/a	n/a	n/a	n/a	n/a	n/a	n/a	n/a
328.12999999999994	2.355	trial	1740.0	Novel	*EITHER*	HI*PITCH	RIGHT*MIDDLE	Correct	35.0	right_index_finger	blue	vertical	low	constant	red	vertical	low	alarm
330.48499999999996	12.56	delay	n/a	n/a	n/a	n/a	n/a	n/a	n/a	n/a	n/a	n/a	n/a	n/a	n/a	n/a	n/a	n/a
343.04499999999996	3.9250000000000003	encoding	n/a	Novel	*EITHER*	HI*PITCH	*LEFT*INDEX*	n/a	34.0	n/a	n/a	n/a	n/a	n/a	n/a	n/a	n/a	n/a
346.96999999999997	3.14	delay	n/a	n/a	n/a	n/a	n/a	n/a	n/a	n/a	n/a	n/a	n/a	n/a	n/a	n/a	n/a	n/a
350.10999999999996	2.355	trial	1777.0	Novel	*EITHER*	HI*PITCH	*LEFT*INDEX*	Correct	34.0	left_middle_finger	blue	horizontal	low	constant	blue	vertical	low	constant
352.465	1.57	ITI	n/a	n/a	n/a	n/a	n/a	n/a	n/a	n/a	n/a	n/a	n/a	n/a	n/a	n/a	n/a	n/a
354.03499999999997	2.355	trial	648.0	Novel	*EITHER*	HI*PITCH	*LEFT*INDEX*	Correct	34.0	left_index_finger	blue	vertical	high	constant	red	horizontal	low	constant
356.39	1.57	ITI	n/a	n/a	n/a	n/a	n/a	n/a	n/a	n/a	n/a	n/a	n/a	n/a	n/a	n/a	n/a	n/a
357.96	2.355	trial	1799.0	Novel	*EITHER*	HI*PITCH	*LEFT*INDEX*	Correct	34.0	left_index_finger	blue	vertical	low	alarm	red	vertical	high	alarm
360.315	10.99	delay	n/a	n/a	n/a	n/a	n/a	n/a	n/a	n/a	n/a	n/a	n/a	n/a	n/a	n/a	n/a	n/a
371.305	3.9250000000000003	encoding	n/a	Novel	*EITHER*	VERTICAL	LEFT*MIDDLE*	n/a	45.0	n/a	n/a	n/a	n/a	n/a	n/a	n/a	n/a	n/a
375.23	3.925	delay	n/a	n/a	n/a	n/a	n/a	n/a	n/a	n/a	n/a	n/a	n/a	n/a	n/a	n/a	n/a	n/a
379.15500000000003	2.355	trial	1855.0	Novel	*EITHER*	VERTICAL	LEFT*MIDDLE*	Correct	45.0	left_index_finger	blue	horizontal	low	constant	red	horizontal	high	alarm
381.51000000000005	1.57	ITI	n/a	n/a	n/a	n/a	n/a	n/a	n/a	n/a	n/a	n/a	n/a	n/a	n/a	n/a	n/a	n/a
383.08000000000004	2.355	trial	577.0	Novel	*EITHER*	VERTICAL	LEFT*MIDDLE*	Correct	45.0	left_middle_finger	blue	vertical	high	constant	red	horizontal	low	alarm
385.43500000000006	1.57	ITI	n/a	n/a	n/a	n/a	n/a	n/a	n/a	n/a	n/a	n/a	n/a	n/a	n/a	n/a	n/a	n/a
387.00500000000005	2.355	trial	574.0	Novel	*EITHER*	VERTICAL	LEFT*MIDDLE*	Correct	45.0	left_middle_finger	red	vertical	low	constant	blue	vertical	high	constant
389.36000000000007	10.205	delay	n/a	n/a	n/a	n/a	n/a	n/a	n/a	n/a	n/a	n/a	n/a	n/a	n/a	n/a	n/a	n/a
399.56500000000005	3.9250000000000003	encoding	n/a	Novel	NOT*BOTH	CONSTANT	RIGHT*MIDDLE	n/a	23.0	n/a	n/a	n/a	n/a	n/a	n/a	n/a	n/a	n/a
403.49000000000007	5.495	delay	n/a	n/a	n/a	n/a	n/a	n/a	n/a	n/a	n/a	n/a	n/a	n/a	n/a	n/a	n/a	n/a
408.98500000000007	2.355	trial	1840.0	Novel	NOT*BOTH	CONSTANT	RIGHT*MIDDLE	Correct	23.0	right_middle_finger	blue	vertical	low	alarm	blue	horizontal	high	alarm
411.3400000000001	1.57	ITI	n/a	n/a	n/a	n/a	n/a	n/a	n/a	n/a	n/a	n/a	n/a	n/a	n/a	n/a	n/a	n/a
412.9100000000001	2.355	trial	748.0	Novel	NOT*BOTH	CONSTANT	RIGHT*MIDDLE	Correct	23.0	right_index_finger	red	vertical	low	constant	blue	horizontal	high	constant
415.2650000000001	1.57	ITI	n/a	n/a	n/a	n/a	n/a	n/a	n/a	n/a	n/a	n/a	n/a	n/a	n/a	n/a	n/a	n/a
416.8350000000001	2.355	trial	1733.0	Novel	NOT*BOTH	CONSTANT	RIGHT*MIDDLE	Correct	23.0	right_middle_finger	red	horizontal	high	alarm	blue	horizontal	low	alarm
419.1900000000001	8.635	delay	n/a	n/a	n/a	n/a	n/a	n/a	n/a	n/a	n/a	n/a	n/a	n/a	n/a	n/a	n/a	n/a
427.8250000000001	3.9250000000000003	encoding	n/a	Novel	NEITHER*	VERTICAL	LEFT*MIDDLE*	n/a	61.0	n/a	n/a	n/a	n/a	n/a	n/a	n/a	n/a	n/a
431.7500000000001	5.495	delay	n/a	n/a	n/a	n/a	n/a	n/a	n/a	n/a	n/a	n/a	n/a	n/a	n/a	n/a	n/a	n/a
437.2450000000001	2.355	trial	1948.0	Novel	NEITHER*	VERTICAL	LEFT*MIDDLE*	Correct	61.0	left_index_finger	blue	horizontal	low	alarm	red	vertical	low	alarm
439.60000000000014	1.57	ITI	n/a	n/a	n/a	n/a	n/a	n/a	n/a	n/a	n/a	n/a	n/a	n/a	n/a	n/a	n/a	n/a
441.17000000000013	2.355	trial	1606.0	Novel	NEITHER*	VERTICAL	LEFT*MIDDLE*	Correct	61.0	left_middle_finger	red	horizontal	low	alarm	red	horizontal	low	constant
443.52500000000015	1.57	ITI	n/a	n/a	n/a	n/a	n/a	n/a	n/a	n/a	n/a	n/a	n/a	n/a	n/a	n/a	n/a	n/a
445.09500000000014	2.355	trial	1821.0	Novel	NEITHER*	VERTICAL	LEFT*MIDDLE*	Correct	61.0	left_index_finger	blue	horizontal	high	alarm	red	vertical	high	constant
447.45000000000016	8.635	delay	n/a	n/a	n/a	n/a	n/a	n/a	n/a	n/a	n/a	n/a	n/a	n/a	n/a	n/a	n/a	n/a
