onset	duration	task_event	rt_in_ms	task_novelty	logic_rule	sensory_rule	motor_rule	performance	task_id	motor_response	stimulus1_color	stimulus1_orientation	stimulus1_pitch	stimulus1_continuity	stimulus2_color	stimulus2_orientation	stimulus2_pitch	stimulus2_continuity
0.0	3.9250000000000003	delay	n/a	n/a	n/a	n/a	n/a	n/a	n/a	n/a	n/a	n/a	n/a	n/a	n/a	n/a	n/a	n/a
3.9250000000000003	3.9250000000000003	encoding	n/a	Novel	NEITHER*	HI*PITCH	*LEFT*INDEX*	n/a	50.0	n/a	n/a	n/a	n/a	n/a	n/a	n/a	n/a	n/a
7.8500000000000005	5.495	delay	n/a	n/a	n/a	n/a	n/a	n/a	n/a	n/a	n/a	n/a	n/a	n/a	n/a	n/a	n/a	n/a
13.345	2.355	trial	1757.0	Novel	NEITHER*	HI*PITCH	*LEFT*INDEX*	Wrong	50.0	left_middle_finger	red	horizontal	low	alarm	blue	horizontal	low	constant
15.700000000000001	1.57	ITI	n/a	n/a	n/a	n/a	n/a	n/a	n/a	n/a	n/a	n/a	n/a	n/a	n/a	n/a	n/a	n/a
17.27	2.355	trial	1765.0	Novel	NEITHER*	HI*PITCH	*LEFT*INDEX*	Wrong	50.0	left_middle_finger	blue	horizontal	low	constant	red	vertical	low	constant
19.625	1.57	ITI	n/a	n/a	n/a	n/a	n/a	n/a	n/a	n/a	n/a	n/a	n/a	n/a	n/a	n/a	n/a	n/a
21.195	2.355	trial	1981.0	Novel	NEITHER*	HI*PITCH	*LEFT*INDEX*	Wrong	50.0	left_index_finger	blue	vertical	low	alarm	blue	horizontal	high	alarm
23.55	8.635	delay	n/a	n/a	n/a	n/a	n/a	n/a	n/a	n/a	n/a	n/a	n/a	n/a	n/a	n/a	n/a	n/a
32.185	3.9250000000000003	encoding	n/a	Novel	*EITHER*	HI*PITCH	LEFT*MIDDLE*	n/a	33.0	n/a	n/a	n/a	n/a	n/a	n/a	n/a	n/a	n/a
36.11	5.495	delay	n/a	n/a	n/a	n/a	n/a	n/a	n/a	n/a	n/a	n/a	n/a	n/a	n/a	n/a	n/a	n/a
41.605	2.355	trial	2647.0	Novel	*EITHER*	HI*PITCH	LEFT*MIDDLE*	Correct	33.0	left_index_finger	red	horizontal	low	alarm	red	horizontal	low	constant
43.959999999999994	1.57	ITI	n/a	n/a	n/a	n/a	n/a	n/a	n/a	n/a	n/a	n/a	n/a	n/a	n/a	n/a	n/a	n/a
45.529999999999994	2.355	trial	2150.0	Novel	*EITHER*	HI*PITCH	LEFT*MIDDLE*	Correct	33.0	left_index_finger	red	horizontal	low	constant	red	horizontal	low	alarm
47.88499999999999	1.57	ITI	n/a	n/a	n/a	n/a	n/a	n/a	n/a	n/a	n/a	n/a	n/a	n/a	n/a	n/a	n/a	n/a
49.45499999999999	2.355	trial	625.0	Novel	*EITHER*	HI*PITCH	LEFT*MIDDLE*	Correct	33.0	left_middle_finger	blue	vertical	high	constant	red	horizontal	low	constant
51.80999999999999	8.635	delay	n/a	n/a	n/a	n/a	n/a	n/a	n/a	n/a	n/a	n/a	n/a	n/a	n/a	n/a	n/a	n/a
60.444999999999986	3.9250000000000003	encoding	n/a	Novel	NOT*BOTH	CONSTANT	RIGHT*INDEX*	n/a	24.0	n/a	n/a	n/a	n/a	n/a	n/a	n/a	n/a	n/a
64.36999999999999	4.71	delay	n/a	n/a	n/a	n/a	n/a	n/a	n/a	n/a	n/a	n/a	n/a	n/a	n/a	n/a	n/a	n/a
69.07999999999998	2.355	trial	2560.0	Novel	NOT*BOTH	CONSTANT	RIGHT*INDEX*	Correct	24.0	right_index_finger	red	horizontal	low	alarm	red	vertical	high	constant
71.43499999999999	1.57	ITI	n/a	n/a	n/a	n/a	n/a	n/a	n/a	n/a	n/a	n/a	n/a	n/a	n/a	n/a	n/a	n/a
73.00499999999998	2.355	trial	1972.0	Novel	NOT*BOTH	CONSTANT	RIGHT*INDEX*	Correct	24.0	right_middle_finger	red	vertical	low	constant	blue	vertical	low	constant
75.35999999999999	1.57	ITI	n/a	n/a	n/a	n/a	n/a	n/a	n/a	n/a	n/a	n/a	n/a	n/a	n/a	n/a	n/a	n/a
76.92999999999998	2.355	trial	1966.0	Novel	NOT*BOTH	CONSTANT	RIGHT*INDEX*	Correct	24.0	right_middle_finger	blue	horizontal	low	constant	red	vertical	low	constant
79.28499999999998	9.42	delay	n/a	n/a	n/a	n/a	n/a	n/a	n/a	n/a	n/a	n/a	n/a	n/a	n/a	n/a	n/a	n/a
88.70499999999998	3.9250000000000003	encoding	n/a	Novel	NOT*BOTH	CONSTANT	RIGHT*MIDDLE	n/a	23.0	n/a	n/a	n/a	n/a	n/a	n/a	n/a	n/a	n/a
92.62999999999998	4.71	delay	n/a	n/a	n/a	n/a	n/a	n/a	n/a	n/a	n/a	n/a	n/a	n/a	n/a	n/a	n/a	n/a
97.33999999999997	2.355	trial	2243.0	Novel	NOT*BOTH	CONSTANT	RIGHT*MIDDLE	Correct	23.0	right_index_finger	red	vertical	low	constant	red	horizontal	low	constant
99.69499999999998	1.57	ITI	n/a	n/a	n/a	n/a	n/a	n/a	n/a	n/a	n/a	n/a	n/a	n/a	n/a	n/a	n/a	n/a
101.26499999999997	2.355	trial	1346.0	Novel	NOT*BOTH	CONSTANT	RIGHT*MIDDLE	Correct	23.0	right_middle_finger	blue	horizontal	low	alarm	blue	horizontal	high	alarm
103.61999999999998	1.57	ITI	n/a	n/a	n/a	n/a	n/a	n/a	n/a	n/a	n/a	n/a	n/a	n/a	n/a	n/a	n/a	n/a
105.18999999999997	2.355	trial	2016.0	Novel	NOT*BOTH	CONSTANT	RIGHT*MIDDLE	Correct	23.0	right_index_finger	blue	horizontal	high	constant	blue	horizontal	high	constant
107.54499999999997	9.42	delay	n/a	n/a	n/a	n/a	n/a	n/a	n/a	n/a	n/a	n/a	n/a	n/a	n/a	n/a	n/a	n/a
116.96499999999997	3.9250000000000003	encoding	n/a	Novel	*EITHER*	VERTICAL	LEFT*MIDDLE*	n/a	45.0	n/a	n/a	n/a	n/a	n/a	n/a	n/a	n/a	n/a
120.88999999999997	2.355	delay	n/a	n/a	n/a	n/a	n/a	n/a	n/a	n/a	n/a	n/a	n/a	n/a	n/a	n/a	n/a	n/a
123.24499999999998	2.355	trial	1921.0	Novel	*EITHER*	VERTICAL	LEFT*MIDDLE*	Correct	45.0	left_index_finger	blue	horizontal	high	constant	red	horizontal	low	constant
125.59999999999998	1.57	ITI	n/a	n/a	n/a	n/a	n/a	n/a	n/a	n/a	n/a	n/a	n/a	n/a	n/a	n/a	n/a	n/a
127.16999999999997	2.355	trial	1976.0	Novel	*EITHER*	VERTICAL	LEFT*MIDDLE*	Correct	45.0	left_index_finger	blue	horizontal	high	alarm	red	horizontal	high	alarm
129.52499999999998	1.57	ITI	n/a	n/a	n/a	n/a	n/a	n/a	n/a	n/a	n/a	n/a	n/a	n/a	n/a	n/a	n/a	n/a
131.09499999999997	2.355	trial	1703.0	Novel	*EITHER*	VERTICAL	LEFT*MIDDLE*	Correct	45.0	left_middle_finger	blue	horizontal	low	constant	red	vertical	low	alarm
133.44999999999996	11.775	delay	n/a	n/a	n/a	n/a	n/a	n/a	n/a	n/a	n/a	n/a	n/a	n/a	n/a	n/a	n/a	n/a
145.22499999999997	3.9250000000000003	encoding	n/a	Novel	NOT*BOTH	**RED***	RIGHT*MIDDLE	n/a	27.0	n/a	n/a	n/a	n/a	n/a	n/a	n/a	n/a	n/a
149.14999999999998	3.14	delay	n/a	n/a	n/a	n/a	n/a	n/a	n/a	n/a	n/a	n/a	n/a	n/a	n/a	n/a	n/a	n/a
152.28999999999996	2.355	trial	722.0	Novel	NOT*BOTH	**RED***	RIGHT*MIDDLE	Correct	27.0	right_middle_finger	blue	vertical	low	constant	blue	vertical	high	alarm
154.64499999999995	1.57	ITI	n/a	n/a	n/a	n/a	n/a	n/a	n/a	n/a	n/a	n/a	n/a	n/a	n/a	n/a	n/a	n/a
156.21499999999995	2.355	trial	708.0	Novel	NOT*BOTH	**RED***	RIGHT*MIDDLE	Correct	27.0	right_middle_finger	blue	horizontal	low	constant	blue	vertical	high	alarm
158.56999999999994	1.57	ITI	n/a	n/a	n/a	n/a	n/a	n/a	n/a	n/a	n/a	n/a	n/a	n/a	n/a	n/a	n/a	n/a
160.13999999999993	2.355	trial	1782.0	Novel	NOT*BOTH	**RED***	RIGHT*MIDDLE	Correct	27.0	right_index_finger	red	vertical	high	alarm	red	horizontal	high	alarm
162.49499999999992	10.99	delay	n/a	n/a	n/a	n/a	n/a	n/a	n/a	n/a	n/a	n/a	n/a	n/a	n/a	n/a	n/a	n/a
173.48499999999993	3.9250000000000003	encoding	n/a	Novel	NEITHER*	VERTICAL	RIGHT*MIDDLE	n/a	63.0	n/a	n/a	n/a	n/a	n/a	n/a	n/a	n/a	n/a
177.40999999999994	1.57	delay	n/a	n/a	n/a	n/a	n/a	n/a	n/a	n/a	n/a	n/a	n/a	n/a	n/a	n/a	n/a	n/a
178.97999999999993	2.355	trial	1799.0	Novel	NEITHER*	VERTICAL	RIGHT*MIDDLE	Correct	63.0	right_middle_finger	blue	horizontal	high	alarm	blue	horizontal	high	alarm
181.33499999999992	1.57	ITI	n/a	n/a	n/a	n/a	n/a	n/a	n/a	n/a	n/a	n/a	n/a	n/a	n/a	n/a	n/a	n/a
182.90499999999992	2.355	trial	2140.0	Novel	NEITHER*	VERTICAL	RIGHT*MIDDLE	Correct	63.0	right_index_finger	blue	vertical	low	alarm	red	vertical	low	constant
185.2599999999999	1.57	ITI	n/a	n/a	n/a	n/a	n/a	n/a	n/a	n/a	n/a	n/a	n/a	n/a	n/a	n/a	n/a	n/a
186.8299999999999	2.355	trial	1797.0	Novel	NEITHER*	VERTICAL	RIGHT*MIDDLE	Correct	63.0	right_index_finger	red	horizontal	low	constant	blue	vertical	high	constant
189.1849999999999	12.56	delay	n/a	n/a	n/a	n/a	n/a	n/a	n/a	n/a	n/a	n/a	n/a	n/a	n/a	n/a	n/a	n/a
201.7449999999999	3.9250000000000003	encoding	n/a	Novel	NEITHER*	**RED***	RIGHT*MIDDLE	n/a	59.0	n/a	n/a	n/a	n/a	n/a	n/a	n/a	n/a	n/a
205.6699999999999	2.355	delay	n/a	n/a	n/a	n/a	n/a	n/a	n/a	n/a	n/a	n/a	n/a	n/a	n/a	n/a	n/a	n/a
208.0249999999999	2.355	trial	1704.0	Novel	NEITHER*	**RED***	RIGHT*MIDDLE	Wrong	59.0	right_middle_finger	red	horizontal	high	constant	blue	vertical	high	constant
210.37999999999988	1.57	ITI	n/a	n/a	n/a	n/a	n/a	n/a	n/a	n/a	n/a	n/a	n/a	n/a	n/a	n/a	n/a	n/a
211.94999999999987	2.355	trial	1765.0	Novel	NEITHER*	**RED***	RIGHT*MIDDLE	Correct	59.0	right_index_finger	red	horizontal	low	constant	red	vertical	low	alarm
214.30499999999986	1.57	ITI	n/a	n/a	n/a	n/a	n/a	n/a	n/a	n/a	n/a	n/a	n/a	n/a	n/a	n/a	n/a	n/a
215.87499999999986	2.355	trial	702.0	Novel	NEITHER*	**RED***	RIGHT*MIDDLE	Wrong	59.0	right_middle_finger	blue	vertical	low	constant	red	vertical	low	alarm
218.22999999999985	11.775	delay	n/a	n/a	n/a	n/a	n/a	n/a	n/a	n/a	n/a	n/a	n/a	n/a	n/a	n/a	n/a	n/a
230.00499999999985	3.9250000000000003	encoding	n/a	Novel	NEITHER*	VERTICAL	RIGHT*INDEX*	n/a	64.0	n/a	n/a	n/a	n/a	n/a	n/a	n/a	n/a	n/a
233.92999999999986	4.71	delay	n/a	n/a	n/a	n/a	n/a	n/a	n/a	n/a	n/a	n/a	n/a	n/a	n/a	n/a	n/a	n/a
238.63999999999987	2.355	trial	1890.0	Novel	NEITHER*	VERTICAL	RIGHT*INDEX*	Wrong	64.0	right_index_finger	red	vertical	low	constant	blue	horizontal	low	constant
240.99499999999986	1.57	ITI	n/a	n/a	n/a	n/a	n/a	n/a	n/a	n/a	n/a	n/a	n/a	n/a	n/a	n/a	n/a	n/a
242.56499999999986	2.355	trial	2257.0	Novel	NEITHER*	VERTICAL	RIGHT*INDEX*	Correct	64.0	right_middle_finger	red	vertical	high	alarm	red	vertical	low	alarm
244.91999999999985	1.57	ITI	n/a	n/a	n/a	n/a	n/a	n/a	n/a	n/a	n/a	n/a	n/a	n/a	n/a	n/a	n/a	n/a
246.48999999999984	2.355	trial	1671.0	Novel	NEITHER*	VERTICAL	RIGHT*INDEX*	Correct	64.0	right_index_finger	red	horizontal	high	alarm	red	horizontal	high	constant
248.84499999999983	9.42	delay	n/a	n/a	n/a	n/a	n/a	n/a	n/a	n/a	n/a	n/a	n/a	n/a	n/a	n/a	n/a	n/a
258.2649999999998	3.9250000000000003	encoding	n/a	Novel	*EITHER*	**RED***	*LEFT*INDEX*	n/a	42.0	n/a	n/a	n/a	n/a	n/a	n/a	n/a	n/a	n/a
262.1899999999998	3.925	delay	n/a	n/a	n/a	n/a	n/a	n/a	n/a	n/a	n/a	n/a	n/a	n/a	n/a	n/a	n/a	n/a
266.11499999999984	2.355	trial	1601.0	Novel	*EITHER*	**RED***	*LEFT*INDEX*	Correct	42.0	left_index_finger	blue	horizontal	low	alarm	red	vertical	high	constant
268.46999999999986	1.57	ITI	n/a	n/a	n/a	n/a	n/a	n/a	n/a	n/a	n/a	n/a	n/a	n/a	n/a	n/a	n/a	n/a
270.03999999999985	2.355	trial	1768.0	Novel	*EITHER*	**RED***	*LEFT*INDEX*	Correct	42.0	left_middle_finger	blue	vertical	low	alarm	blue	vertical	high	alarm
272.39499999999987	1.57	ITI	n/a	n/a	n/a	n/a	n/a	n/a	n/a	n/a	n/a	n/a	n/a	n/a	n/a	n/a	n/a	n/a
273.96499999999986	2.355	trial	0.0	Novel	*EITHER*	**RED***	*LEFT*INDEX*	No Response	42.0	no_response	blue	horizontal	high	constant	blue	vertical	low	alarm
276.3199999999999	10.205	delay	n/a	n/a	n/a	n/a	n/a	n/a	n/a	n/a	n/a	n/a	n/a	n/a	n/a	n/a	n/a	n/a
286.52499999999986	3.9250000000000003	encoding	n/a	Novel	**BOTH**	**RED***	LEFT*MIDDLE*	n/a	9.0	n/a	n/a	n/a	n/a	n/a	n/a	n/a	n/a	n/a
290.4499999999999	3.925	delay	n/a	n/a	n/a	n/a	n/a	n/a	n/a	n/a	n/a	n/a	n/a	n/a	n/a	n/a	n/a	n/a
294.3749999999999	2.355	trial	1804.0	Novel	**BOTH**	**RED***	LEFT*MIDDLE*	Correct	9.0	left_index_finger	red	horizontal	high	alarm	blue	vertical	high	alarm
296.7299999999999	1.57	ITI	n/a	n/a	n/a	n/a	n/a	n/a	n/a	n/a	n/a	n/a	n/a	n/a	n/a	n/a	n/a	n/a
298.2999999999999	2.355	trial	1738.0	Novel	**BOTH**	**RED***	LEFT*MIDDLE*	Correct	9.0	left_index_finger	red	vertical	low	constant	blue	horizontal	high	alarm
300.6549999999999	1.57	ITI	n/a	n/a	n/a	n/a	n/a	n/a	n/a	n/a	n/a	n/a	n/a	n/a	n/a	n/a	n/a	n/a
302.2249999999999	2.355	trial	1171.0	Novel	**BOTH**	**RED***	LEFT*MIDDLE*	Correct	9.0	left_index_finger	blue	vertical	low	alarm	blue	horizontal	low	alarm
304.5799999999999	10.205	delay	n/a	n/a	n/a	n/a	n/a	n/a	n/a	n/a	n/a	n/a	n/a	n/a	n/a	n/a	n/a	n/a
314.7849999999999	3.9250000000000003	encoding	n/a	Novel	NOT*BOTH	**RED***	RIGHT*INDEX*	n/a	28.0	n/a	n/a	n/a	n/a	n/a	n/a	n/a	n/a	n/a
318.7099999999999	3.925	delay	n/a	n/a	n/a	n/a	n/a	n/a	n/a	n/a	n/a	n/a	n/a	n/a	n/a	n/a	n/a	n/a
322.63499999999993	2.355	trial	1823.0	Novel	NOT*BOTH	**RED***	RIGHT*INDEX*	Correct	28.0	right_middle_finger	red	horizontal	high	alarm	red	horizontal	high	constant
324.98999999999995	1.57	ITI	n/a	n/a	n/a	n/a	n/a	n/a	n/a	n/a	n/a	n/a	n/a	n/a	n/a	n/a	n/a	n/a
326.55999999999995	2.355	trial	1645.0	Novel	NOT*BOTH	**RED***	RIGHT*INDEX*	Correct	28.0	right_middle_finger	red	horizontal	high	alarm	red	horizontal	low	constant
328.91499999999996	1.57	ITI	n/a	n/a	n/a	n/a	n/a	n/a	n/a	n/a	n/a	n/a	n/a	n/a	n/a	n/a	n/a	n/a
330.48499999999996	2.355	trial	2171.0	Novel	NOT*BOTH	**RED***	RIGHT*INDEX*	Correct	28.0	right_middle_finger	red	vertical	low	alarm	red	horizontal	high	constant
332.84	10.205	delay	n/a	n/a	n/a	n/a	n/a	n/a	n/a	n/a	n/a	n/a	n/a	n/a	n/a	n/a	n/a	n/a
343.04499999999996	3.9250000000000003	encoding	n/a	Novel	NOT*BOTH	CONSTANT	*LEFT*INDEX*	n/a	22.0	n/a	n/a	n/a	n/a	n/a	n/a	n/a	n/a	n/a
346.96999999999997	4.71	delay	n/a	n/a	n/a	n/a	n/a	n/a	n/a	n/a	n/a	n/a	n/a	n/a	n/a	n/a	n/a	n/a
351.67999999999995	2.355	trial	2471.0	Novel	NOT*BOTH	CONSTANT	*LEFT*INDEX*	Wrong	22.0	left_index_finger	blue	horizontal	high	constant	blue	horizontal	high	constant
354.03499999999997	1.57	ITI	n/a	n/a	n/a	n/a	n/a	n/a	n/a	n/a	n/a	n/a	n/a	n/a	n/a	n/a	n/a	n/a
355.60499999999996	2.355	trial	2306.0	Novel	NOT*BOTH	CONSTANT	*LEFT*INDEX*	Wrong	22.0	left_index_finger	red	horizontal	low	constant	red	vertical	low	constant
357.96	1.57	ITI	n/a	n/a	n/a	n/a	n/a	n/a	n/a	n/a	n/a	n/a	n/a	n/a	n/a	n/a	n/a	n/a
359.53	2.355	trial	951.0	Novel	NOT*BOTH	CONSTANT	*LEFT*INDEX*	Wrong	22.0	left_middle_finger	red	horizontal	high	alarm	blue	vertical	high	constant
361.885	9.42	delay	n/a	n/a	n/a	n/a	n/a	n/a	n/a	n/a	n/a	n/a	n/a	n/a	n/a	n/a	n/a	n/a
371.305	3.9250000000000003	encoding	n/a	Novel	NEITHER*	**RED***	LEFT*MIDDLE*	n/a	57.0	n/a	n/a	n/a	n/a	n/a	n/a	n/a	n/a	n/a
375.23	2.355	delay	n/a	n/a	n/a	n/a	n/a	n/a	n/a	n/a	n/a	n/a	n/a	n/a	n/a	n/a	n/a	n/a
377.58500000000004	2.355	trial	1843.0	Novel	NEITHER*	**RED***	LEFT*MIDDLE*	Correct	57.0	left_index_finger	red	vertical	high	constant	red	vertical	low	constant
379.94000000000005	1.57	ITI	n/a	n/a	n/a	n/a	n/a	n/a	n/a	n/a	n/a	n/a	n/a	n/a	n/a	n/a	n/a	n/a
381.51000000000005	2.355	trial	1620.0	Novel	NEITHER*	**RED***	LEFT*MIDDLE*	Correct	57.0	left_middle_finger	blue	vertical	high	alarm	blue	horizontal	high	alarm
383.86500000000007	1.57	ITI	n/a	n/a	n/a	n/a	n/a	n/a	n/a	n/a	n/a	n/a	n/a	n/a	n/a	n/a	n/a	n/a
385.43500000000006	2.355	trial	1591.0	Novel	NEITHER*	**RED***	LEFT*MIDDLE*	Correct	57.0	left_middle_finger	blue	vertical	low	alarm	blue	horizontal	low	alarm
387.7900000000001	11.775	delay	n/a	n/a	n/a	n/a	n/a	n/a	n/a	n/a	n/a	n/a	n/a	n/a	n/a	n/a	n/a	n/a
399.56500000000005	3.9250000000000003	encoding	n/a	Novel	*EITHER*	CONSTANT	LEFT*MIDDLE*	n/a	37.0	n/a	n/a	n/a	n/a	n/a	n/a	n/a	n/a	n/a
403.49000000000007	1.57	delay	n/a	n/a	n/a	n/a	n/a	n/a	n/a	n/a	n/a	n/a	n/a	n/a	n/a	n/a	n/a	n/a
405.06000000000006	2.355	trial	1228.0	Novel	*EITHER*	CONSTANT	LEFT*MIDDLE*	Correct	37.0	left_middle_finger	blue	horizontal	low	constant	red	vertical	low	constant
407.4150000000001	1.57	ITI	n/a	n/a	n/a	n/a	n/a	n/a	n/a	n/a	n/a	n/a	n/a	n/a	n/a	n/a	n/a	n/a
408.98500000000007	2.355	trial	2195.0	Novel	*EITHER*	CONSTANT	LEFT*MIDDLE*	Correct	37.0	left_index_finger	red	horizontal	low	alarm	blue	horizontal	high	alarm
411.3400000000001	1.57	ITI	n/a	n/a	n/a	n/a	n/a	n/a	n/a	n/a	n/a	n/a	n/a	n/a	n/a	n/a	n/a	n/a
412.9100000000001	2.355	trial	1762.0	Novel	*EITHER*	CONSTANT	LEFT*MIDDLE*	Correct	37.0	left_index_finger	red	horizontal	low	alarm	red	horizontal	high	alarm
415.2650000000001	12.56	delay	n/a	n/a	n/a	n/a	n/a	n/a	n/a	n/a	n/a	n/a	n/a	n/a	n/a	n/a	n/a	n/a
427.8250000000001	3.9250000000000003	encoding	n/a	Novel	NEITHER*	CONSTANT	RIGHT*INDEX*	n/a	56.0	n/a	n/a	n/a	n/a	n/a	n/a	n/a	n/a	n/a
431.7500000000001	1.57	delay	n/a	n/a	n/a	n/a	n/a	n/a	n/a	n/a	n/a	n/a	n/a	n/a	n/a	n/a	n/a	n/a
433.3200000000001	2.355	trial	2337.0	Novel	NEITHER*	CONSTANT	RIGHT*INDEX*	Correct	56.0	right_middle_finger	blue	vertical	high	constant	blue	horizontal	low	constant
435.6750000000001	1.57	ITI	n/a	n/a	n/a	n/a	n/a	n/a	n/a	n/a	n/a	n/a	n/a	n/a	n/a	n/a	n/a	n/a
437.2450000000001	2.355	trial	1946.0	Novel	NEITHER*	CONSTANT	RIGHT*INDEX*	Correct	56.0	right_index_finger	blue	horizontal	high	alarm	blue	vertical	low	alarm
439.60000000000014	1.57	ITI	n/a	n/a	n/a	n/a	n/a	n/a	n/a	n/a	n/a	n/a	n/a	n/a	n/a	n/a	n/a	n/a
441.17000000000013	2.355	trial	1796.0	Novel	NEITHER*	CONSTANT	RIGHT*INDEX*	Correct	56.0	right_middle_finger	blue	vertical	low	constant	blue	horizontal	low	constant
443.52500000000015	12.56	delay	n/a	n/a	n/a	n/a	n/a	n/a	n/a	n/a	n/a	n/a	n/a	n/a	n/a	n/a	n/a	n/a
