onset	duration	task_event	rt_in_ms	task_novelty	logic_rule	sensory_rule	motor_rule	performance	task_id	motor_response	stimulus1_color	stimulus1_orientation	stimulus1_pitch	stimulus1_continuity	stimulus2_color	stimulus2_orientation	stimulus2_pitch	stimulus2_continuity
0.0	3.9250000000000003	delay	n/a	n/a	n/a	n/a	n/a	n/a	n/a	n/a	n/a	n/a	n/a	n/a	n/a	n/a	n/a	n/a
3.9250000000000003	3.9250000000000003	encoding	n/a	Novel	**BOTH**	**RED***	LEFT*MIDDLE*	n/a	9.0	n/a	n/a	n/a	n/a	n/a	n/a	n/a	n/a	n/a
7.8500000000000005	6.28	delay	n/a	n/a	n/a	n/a	n/a	n/a	n/a	n/a	n/a	n/a	n/a	n/a	n/a	n/a	n/a	n/a
14.13	2.355	trial	1985.0	Novel	**BOTH**	**RED***	LEFT*MIDDLE*	Correct	9.0	left_index_finger	red	horizontal	high	constant	blue	vertical	low	constant
16.485	1.57	ITI	n/a	n/a	n/a	n/a	n/a	n/a	n/a	n/a	n/a	n/a	n/a	n/a	n/a	n/a	n/a	n/a
18.055	2.355	trial	1601.0	Novel	**BOTH**	**RED***	LEFT*MIDDLE*	Correct	9.0	left_middle_finger	red	horizontal	high	constant	red	vertical	high	constant
20.41	1.57	ITI	n/a	n/a	n/a	n/a	n/a	n/a	n/a	n/a	n/a	n/a	n/a	n/a	n/a	n/a	n/a	n/a
21.98	2.355	trial	1793.0	Novel	**BOTH**	**RED***	LEFT*MIDDLE*	Correct	9.0	left_middle_finger	red	horizontal	low	constant	red	vertical	low	constant
24.335	7.85	delay	n/a	n/a	n/a	n/a	n/a	n/a	n/a	n/a	n/a	n/a	n/a	n/a	n/a	n/a	n/a	n/a
32.185	3.9250000000000003	encoding	n/a	Novel	NEITHER*	**RED***	*LEFT*INDEX*	n/a	58.0	n/a	n/a	n/a	n/a	n/a	n/a	n/a	n/a	n/a
36.11	5.495	delay	n/a	n/a	n/a	n/a	n/a	n/a	n/a	n/a	n/a	n/a	n/a	n/a	n/a	n/a	n/a	n/a
41.605	2.355	trial	1843.0	Novel	NEITHER*	**RED***	*LEFT*INDEX*	Correct	58.0	left_index_finger	blue	vertical	low	alarm	blue	vertical	low	constant
43.959999999999994	1.57	ITI	n/a	n/a	n/a	n/a	n/a	n/a	n/a	n/a	n/a	n/a	n/a	n/a	n/a	n/a	n/a	n/a
45.529999999999994	2.355	trial	918.0	Novel	NEITHER*	**RED***	*LEFT*INDEX*	Correct	58.0	left_middle_finger	red	vertical	high	alarm	blue	horizontal	high	constant
47.88499999999999	1.57	ITI	n/a	n/a	n/a	n/a	n/a	n/a	n/a	n/a	n/a	n/a	n/a	n/a	n/a	n/a	n/a	n/a
49.45499999999999	2.355	trial	0.0	Novel	NEITHER*	**RED***	*LEFT*INDEX*	No Response	58.0	no_response	red	vertical	low	constant	red	vertical	high	alarm
51.80999999999999	8.635	delay	n/a	n/a	n/a	n/a	n/a	n/a	n/a	n/a	n/a	n/a	n/a	n/a	n/a	n/a	n/a	n/a
60.444999999999986	3.9250000000000003	encoding	n/a	Novel	NEITHER*	**RED***	RIGHT*MIDDLE	n/a	59.0	n/a	n/a	n/a	n/a	n/a	n/a	n/a	n/a	n/a
64.36999999999999	2.355	delay	n/a	n/a	n/a	n/a	n/a	n/a	n/a	n/a	n/a	n/a	n/a	n/a	n/a	n/a	n/a	n/a
66.725	2.355	trial	2538.0	Novel	NEITHER*	**RED***	RIGHT*MIDDLE	Correct	59.0	right_middle_finger	blue	horizontal	high	alarm	blue	horizontal	low	alarm
69.08	1.57	ITI	n/a	n/a	n/a	n/a	n/a	n/a	n/a	n/a	n/a	n/a	n/a	n/a	n/a	n/a	n/a	n/a
70.64999999999999	2.355	trial	1672.0	Novel	NEITHER*	**RED***	RIGHT*MIDDLE	Correct	59.0	right_middle_finger	blue	horizontal	high	alarm	blue	vertical	low	alarm
73.005	1.57	ITI	n/a	n/a	n/a	n/a	n/a	n/a	n/a	n/a	n/a	n/a	n/a	n/a	n/a	n/a	n/a	n/a
74.57499999999999	2.355	trial	2068.0	Novel	NEITHER*	**RED***	RIGHT*MIDDLE	Correct	59.0	right_middle_finger	blue	vertical	high	alarm	blue	horizontal	low	constant
76.92999999999999	11.775	delay	n/a	n/a	n/a	n/a	n/a	n/a	n/a	n/a	n/a	n/a	n/a	n/a	n/a	n/a	n/a	n/a
88.705	3.9250000000000003	encoding	n/a	Novel	NOT*BOTH	CONSTANT	RIGHT*INDEX*	n/a	24.0	n/a	n/a	n/a	n/a	n/a	n/a	n/a	n/a	n/a
92.63	5.495	delay	n/a	n/a	n/a	n/a	n/a	n/a	n/a	n/a	n/a	n/a	n/a	n/a	n/a	n/a	n/a	n/a
98.125	2.355	trial	2262.0	Novel	NOT*BOTH	CONSTANT	RIGHT*INDEX*	Wrong	24.0	right_middle_finger	red	vertical	low	alarm	blue	vertical	high	alarm
100.48	1.57	ITI	n/a	n/a	n/a	n/a	n/a	n/a	n/a	n/a	n/a	n/a	n/a	n/a	n/a	n/a	n/a	n/a
102.05	2.355	trial	988.0	Novel	NOT*BOTH	CONSTANT	RIGHT*INDEX*	Wrong	24.0	right_index_finger	red	horizontal	high	constant	red	vertical	high	constant
104.405	1.57	ITI	n/a	n/a	n/a	n/a	n/a	n/a	n/a	n/a	n/a	n/a	n/a	n/a	n/a	n/a	n/a	n/a
105.975	2.355	trial	0.0	Novel	NOT*BOTH	CONSTANT	RIGHT*INDEX*	No Response	24.0	no_response	red	vertical	low	constant	red	horizontal	low	alarm
108.33	8.635	delay	n/a	n/a	n/a	n/a	n/a	n/a	n/a	n/a	n/a	n/a	n/a	n/a	n/a	n/a	n/a	n/a
116.965	3.9250000000000003	encoding	n/a	Novel	NOT*BOTH	**RED***	RIGHT*INDEX*	n/a	28.0	n/a	n/a	n/a	n/a	n/a	n/a	n/a	n/a	n/a
120.89	4.71	delay	n/a	n/a	n/a	n/a	n/a	n/a	n/a	n/a	n/a	n/a	n/a	n/a	n/a	n/a	n/a	n/a
125.6	2.355	trial	1783.0	Novel	NOT*BOTH	**RED***	RIGHT*INDEX*	Correct	28.0	right_middle_finger	red	vertical	low	alarm	red	horizontal	high	alarm
127.955	1.57	ITI	n/a	n/a	n/a	n/a	n/a	n/a	n/a	n/a	n/a	n/a	n/a	n/a	n/a	n/a	n/a	n/a
129.525	2.355	trial	1710.0	Novel	NOT*BOTH	**RED***	RIGHT*INDEX*	Correct	28.0	right_middle_finger	red	horizontal	low	alarm	red	vertical	high	alarm
131.88	1.57	ITI	n/a	n/a	n/a	n/a	n/a	n/a	n/a	n/a	n/a	n/a	n/a	n/a	n/a	n/a	n/a	n/a
133.45	2.355	trial	704.0	Novel	NOT*BOTH	**RED***	RIGHT*INDEX*	Correct	28.0	right_index_finger	blue	horizontal	low	alarm	red	vertical	high	constant
135.80499999999998	9.42	delay	n/a	n/a	n/a	n/a	n/a	n/a	n/a	n/a	n/a	n/a	n/a	n/a	n/a	n/a	n/a	n/a
145.22499999999997	3.9250000000000003	encoding	n/a	Novel	NEITHER*	**RED***	LEFT*MIDDLE*	n/a	57.0	n/a	n/a	n/a	n/a	n/a	n/a	n/a	n/a	n/a
149.14999999999998	1.57	delay	n/a	n/a	n/a	n/a	n/a	n/a	n/a	n/a	n/a	n/a	n/a	n/a	n/a	n/a	n/a	n/a
150.71999999999997	2.355	trial	2023.0	Novel	NEITHER*	**RED***	LEFT*MIDDLE*	Correct	57.0	left_middle_finger	blue	horizontal	high	constant	blue	horizontal	high	alarm
153.07499999999996	1.57	ITI	n/a	n/a	n/a	n/a	n/a	n/a	n/a	n/a	n/a	n/a	n/a	n/a	n/a	n/a	n/a	n/a
154.64499999999995	2.355	trial	859.0	Novel	NEITHER*	**RED***	LEFT*MIDDLE*	Correct	57.0	left_index_finger	red	horizontal	high	alarm	blue	vertical	low	constant
156.99999999999994	1.57	ITI	n/a	n/a	n/a	n/a	n/a	n/a	n/a	n/a	n/a	n/a	n/a	n/a	n/a	n/a	n/a	n/a
158.56999999999994	2.355	trial	1791.0	Novel	NEITHER*	**RED***	LEFT*MIDDLE*	Correct	57.0	left_index_finger	blue	horizontal	high	constant	red	vertical	high	constant
160.92499999999993	12.56	delay	n/a	n/a	n/a	n/a	n/a	n/a	n/a	n/a	n/a	n/a	n/a	n/a	n/a	n/a	n/a	n/a
173.48499999999993	3.9250000000000003	encoding	n/a	Novel	NEITHER*	**RED***	RIGHT*INDEX*	n/a	60.0	n/a	n/a	n/a	n/a	n/a	n/a	n/a	n/a	n/a
177.40999999999994	6.28	delay	n/a	n/a	n/a	n/a	n/a	n/a	n/a	n/a	n/a	n/a	n/a	n/a	n/a	n/a	n/a	n/a
183.68999999999994	2.355	trial	1858.0	Novel	NEITHER*	**RED***	RIGHT*INDEX*	Correct	60.0	right_index_finger	blue	vertical	high	constant	blue	horizontal	high	alarm
186.04499999999993	1.57	ITI	n/a	n/a	n/a	n/a	n/a	n/a	n/a	n/a	n/a	n/a	n/a	n/a	n/a	n/a	n/a	n/a
187.61499999999992	2.355	trial	1594.0	Novel	NEITHER*	**RED***	RIGHT*INDEX*	Correct	60.0	right_middle_finger	red	vertical	low	alarm	blue	horizontal	high	constant
189.9699999999999	1.57	ITI	n/a	n/a	n/a	n/a	n/a	n/a	n/a	n/a	n/a	n/a	n/a	n/a	n/a	n/a	n/a	n/a
191.5399999999999	2.355	trial	1699.0	Novel	NEITHER*	**RED***	RIGHT*INDEX*	Correct	60.0	right_index_finger	blue	vertical	low	alarm	blue	horizontal	high	constant
193.8949999999999	7.85	delay	n/a	n/a	n/a	n/a	n/a	n/a	n/a	n/a	n/a	n/a	n/a	n/a	n/a	n/a	n/a	n/a
201.7449999999999	3.9250000000000003	encoding	n/a	Novel	NOT*BOTH	VERTICAL	RIGHT*INDEX*	n/a	32.0	n/a	n/a	n/a	n/a	n/a	n/a	n/a	n/a	n/a
205.6699999999999	4.71	delay	n/a	n/a	n/a	n/a	n/a	n/a	n/a	n/a	n/a	n/a	n/a	n/a	n/a	n/a	n/a	n/a
210.3799999999999	2.355	trial	1893.0	Novel	NOT*BOTH	VERTICAL	RIGHT*INDEX*	Correct	32.0	right_middle_finger	blue	vertical	low	constant	red	vertical	low	alarm
212.7349999999999	1.57	ITI	n/a	n/a	n/a	n/a	n/a	n/a	n/a	n/a	n/a	n/a	n/a	n/a	n/a	n/a	n/a	n/a
214.3049999999999	2.355	trial	1787.0	Novel	NOT*BOTH	VERTICAL	RIGHT*INDEX*	Correct	32.0	right_index_finger	blue	vertical	high	alarm	blue	horizontal	low	alarm
216.65999999999988	1.57	ITI	n/a	n/a	n/a	n/a	n/a	n/a	n/a	n/a	n/a	n/a	n/a	n/a	n/a	n/a	n/a	n/a
218.22999999999988	2.355	trial	1061.0	Novel	NOT*BOTH	VERTICAL	RIGHT*INDEX*	Correct	32.0	right_index_finger	red	horizontal	low	constant	red	horizontal	low	constant
220.58499999999987	9.42	delay	n/a	n/a	n/a	n/a	n/a	n/a	n/a	n/a	n/a	n/a	n/a	n/a	n/a	n/a	n/a	n/a
230.00499999999985	3.9250000000000003	encoding	n/a	Novel	NEITHER*	HI*PITCH	RIGHT*MIDDLE	n/a	51.0	n/a	n/a	n/a	n/a	n/a	n/a	n/a	n/a	n/a
233.92999999999986	4.71	delay	n/a	n/a	n/a	n/a	n/a	n/a	n/a	n/a	n/a	n/a	n/a	n/a	n/a	n/a	n/a	n/a
238.63999999999987	2.355	trial	2664.0	Novel	NEITHER*	HI*PITCH	RIGHT*MIDDLE	Correct	51.0	right_index_finger	red	vertical	high	alarm	red	vertical	high	constant
240.99499999999986	1.57	ITI	n/a	n/a	n/a	n/a	n/a	n/a	n/a	n/a	n/a	n/a	n/a	n/a	n/a	n/a	n/a	n/a
242.56499999999986	2.355	trial	1697.0	Novel	NEITHER*	HI*PITCH	RIGHT*MIDDLE	Correct	51.0	right_index_finger	red	vertical	high	alarm	red	vertical	high	constant
244.91999999999985	1.57	ITI	n/a	n/a	n/a	n/a	n/a	n/a	n/a	n/a	n/a	n/a	n/a	n/a	n/a	n/a	n/a	n/a
246.48999999999984	2.355	trial	1732.0	Novel	NEITHER*	HI*PITCH	RIGHT*MIDDLE	Correct	51.0	right_index_finger	red	vertical	high	alarm	red	horizontal	low	constant
248.84499999999983	9.42	delay	n/a	n/a	n/a	n/a	n/a	n/a	n/a	n/a	n/a	n/a	n/a	n/a	n/a	n/a	n/a	n/a
258.2649999999998	3.9250000000000003	encoding	n/a	Novel	*EITHER*	CONSTANT	LEFT*MIDDLE*	n/a	37.0	n/a	n/a	n/a	n/a	n/a	n/a	n/a	n/a	n/a
262.1899999999998	5.495	delay	n/a	n/a	n/a	n/a	n/a	n/a	n/a	n/a	n/a	n/a	n/a	n/a	n/a	n/a	n/a	n/a
267.68499999999983	2.355	trial	2484.0	Novel	*EITHER*	CONSTANT	LEFT*MIDDLE*	Correct	37.0	left_middle_finger	blue	vertical	high	constant	red	vertical	high	alarm
270.03999999999985	1.57	ITI	n/a	n/a	n/a	n/a	n/a	n/a	n/a	n/a	n/a	n/a	n/a	n/a	n/a	n/a	n/a	n/a
271.60999999999984	2.355	trial	1705.0	Novel	*EITHER*	CONSTANT	LEFT*MIDDLE*	Correct	37.0	left_index_finger	blue	horizontal	low	alarm	red	horizontal	high	alarm
273.96499999999986	1.57	ITI	n/a	n/a	n/a	n/a	n/a	n/a	n/a	n/a	n/a	n/a	n/a	n/a	n/a	n/a	n/a	n/a
275.53499999999985	2.355	trial	1610.0	Novel	*EITHER*	CONSTANT	LEFT*MIDDLE*	Correct	37.0	left_middle_finger	red	horizontal	low	constant	blue	horizontal	high	alarm
277.8899999999999	8.635	delay	n/a	n/a	n/a	n/a	n/a	n/a	n/a	n/a	n/a	n/a	n/a	n/a	n/a	n/a	n/a	n/a
286.52499999999986	3.9250000000000003	encoding	n/a	Novel	**BOTH**	HI*PITCH	*LEFT*INDEX*	n/a	2.0	n/a	n/a	n/a	n/a	n/a	n/a	n/a	n/a	n/a
290.4499999999999	5.495	delay	n/a	n/a	n/a	n/a	n/a	n/a	n/a	n/a	n/a	n/a	n/a	n/a	n/a	n/a	n/a	n/a
295.9449999999999	2.355	trial	1752.0	Novel	**BOTH**	HI*PITCH	*LEFT*INDEX*	Correct	2.0	left_middle_finger	red	vertical	high	constant	red	horizontal	low	alarm
298.2999999999999	1.57	ITI	n/a	n/a	n/a	n/a	n/a	n/a	n/a	n/a	n/a	n/a	n/a	n/a	n/a	n/a	n/a	n/a
299.8699999999999	2.355	trial	926.0	Novel	**BOTH**	HI*PITCH	*LEFT*INDEX*	Correct	2.0	left_middle_finger	blue	horizontal	low	constant	red	vertical	low	alarm
302.2249999999999	1.57	ITI	n/a	n/a	n/a	n/a	n/a	n/a	n/a	n/a	n/a	n/a	n/a	n/a	n/a	n/a	n/a	n/a
303.7949999999999	2.355	trial	698.0	Novel	**BOTH**	HI*PITCH	*LEFT*INDEX*	Correct	2.0	left_middle_finger	red	vertical	low	alarm	red	horizontal	high	constant
306.1499999999999	8.635	delay	n/a	n/a	n/a	n/a	n/a	n/a	n/a	n/a	n/a	n/a	n/a	n/a	n/a	n/a	n/a	n/a
314.7849999999999	3.9250000000000003	encoding	n/a	Novel	*EITHER*	**RED***	LEFT*MIDDLE*	n/a	41.0	n/a	n/a	n/a	n/a	n/a	n/a	n/a	n/a	n/a
318.7099999999999	2.355	delay	n/a	n/a	n/a	n/a	n/a	n/a	n/a	n/a	n/a	n/a	n/a	n/a	n/a	n/a	n/a	n/a
321.06499999999994	2.355	trial	2438.0	Novel	*EITHER*	**RED***	LEFT*MIDDLE*	Correct	41.0	left_index_finger	blue	horizontal	low	constant	blue	horizontal	low	alarm
323.41999999999996	1.57	ITI	n/a	n/a	n/a	n/a	n/a	n/a	n/a	n/a	n/a	n/a	n/a	n/a	n/a	n/a	n/a	n/a
324.98999999999995	2.355	trial	1631.0	Novel	*EITHER*	**RED***	LEFT*MIDDLE*	Correct	41.0	left_middle_finger	blue	vertical	low	constant	red	horizontal	low	constant
327.34499999999997	1.57	ITI	n/a	n/a	n/a	n/a	n/a	n/a	n/a	n/a	n/a	n/a	n/a	n/a	n/a	n/a	n/a	n/a
328.91499999999996	2.355	trial	649.0	Novel	*EITHER*	**RED***	LEFT*MIDDLE*	Correct	41.0	left_middle_finger	red	vertical	low	alarm	blue	vertical	low	alarm
331.27	11.775	delay	n/a	n/a	n/a	n/a	n/a	n/a	n/a	n/a	n/a	n/a	n/a	n/a	n/a	n/a	n/a	n/a
343.04499999999996	3.9250000000000003	encoding	n/a	Prac	**BOTH**	CONSTANT	LEFT*MIDDLE*	n/a	5.0	n/a	n/a	n/a	n/a	n/a	n/a	n/a	n/a	n/a
346.96999999999997	6.28	delay	n/a	n/a	n/a	n/a	n/a	n/a	n/a	n/a	n/a	n/a	n/a	n/a	n/a	n/a	n/a	n/a
353.24999999999994	2.355	trial	1921.0	Prac	**BOTH**	CONSTANT	LEFT*MIDDLE*	Correct	5.0	left_middle_finger	blue	horizontal	high	constant	blue	vertical	low	constant
355.60499999999996	1.57	ITI	n/a	n/a	n/a	n/a	n/a	n/a	n/a	n/a	n/a	n/a	n/a	n/a	n/a	n/a	n/a	n/a
357.17499999999995	2.355	trial	1095.0	Prac	**BOTH**	CONSTANT	LEFT*MIDDLE*	Correct	5.0	left_index_finger	blue	vertical	low	alarm	red	horizontal	low	constant
359.53	1.57	ITI	n/a	n/a	n/a	n/a	n/a	n/a	n/a	n/a	n/a	n/a	n/a	n/a	n/a	n/a	n/a	n/a
361.09999999999997	2.355	trial	0.0	Prac	**BOTH**	CONSTANT	LEFT*MIDDLE*	No Response	5.0	no_response	red	horizontal	low	alarm	blue	horizontal	high	alarm
363.455	7.85	delay	n/a	n/a	n/a	n/a	n/a	n/a	n/a	n/a	n/a	n/a	n/a	n/a	n/a	n/a	n/a	n/a
371.305	3.9250000000000003	encoding	n/a	Novel	NEITHER*	VERTICAL	LEFT*MIDDLE*	n/a	61.0	n/a	n/a	n/a	n/a	n/a	n/a	n/a	n/a	n/a
375.23	6.28	delay	n/a	n/a	n/a	n/a	n/a	n/a	n/a	n/a	n/a	n/a	n/a	n/a	n/a	n/a	n/a	n/a
381.51	2.355	trial	2021.0	Novel	NEITHER*	VERTICAL	LEFT*MIDDLE*	Correct	61.0	left_middle_finger	red	horizontal	high	alarm	blue	horizontal	low	constant
383.865	1.57	ITI	n/a	n/a	n/a	n/a	n/a	n/a	n/a	n/a	n/a	n/a	n/a	n/a	n/a	n/a	n/a	n/a
385.435	2.355	trial	1650.0	Novel	NEITHER*	VERTICAL	LEFT*MIDDLE*	Correct	61.0	left_index_finger	red	horizontal	high	alarm	red	vertical	high	constant
387.79	1.57	ITI	n/a	n/a	n/a	n/a	n/a	n/a	n/a	n/a	n/a	n/a	n/a	n/a	n/a	n/a	n/a	n/a
389.36	2.355	trial	2043.0	Novel	NEITHER*	VERTICAL	LEFT*MIDDLE*	Correct	61.0	left_middle_finger	red	horizontal	high	constant	red	horizontal	high	alarm
391.71500000000003	7.85	delay	n/a	n/a	n/a	n/a	n/a	n/a	n/a	n/a	n/a	n/a	n/a	n/a	n/a	n/a	n/a	n/a
399.56500000000005	3.9250000000000003	encoding	n/a	Novel	NOT*BOTH	VERTICAL	LEFT*MIDDLE*	n/a	29.0	n/a	n/a	n/a	n/a	n/a	n/a	n/a	n/a	n/a
403.49000000000007	2.355	delay	n/a	n/a	n/a	n/a	n/a	n/a	n/a	n/a	n/a	n/a	n/a	n/a	n/a	n/a	n/a	n/a
405.8450000000001	2.355	trial	2092.0	Novel	NOT*BOTH	VERTICAL	LEFT*MIDDLE*	Correct	29.0	left_index_finger	red	vertical	high	alarm	blue	vertical	high	alarm
408.2000000000001	1.57	ITI	n/a	n/a	n/a	n/a	n/a	n/a	n/a	n/a	n/a	n/a	n/a	n/a	n/a	n/a	n/a	n/a
409.7700000000001	2.355	trial	1843.0	Novel	NOT*BOTH	VERTICAL	LEFT*MIDDLE*	Correct	29.0	left_index_finger	red	vertical	high	alarm	blue	vertical	high	alarm
412.1250000000001	1.57	ITI	n/a	n/a	n/a	n/a	n/a	n/a	n/a	n/a	n/a	n/a	n/a	n/a	n/a	n/a	n/a	n/a
413.6950000000001	2.355	trial	1601.0	Novel	NOT*BOTH	VERTICAL	LEFT*MIDDLE*	Correct	29.0	left_middle_finger	red	vertical	low	constant	blue	horizontal	high	alarm
416.0500000000001	11.775	delay	n/a	n/a	n/a	n/a	n/a	n/a	n/a	n/a	n/a	n/a	n/a	n/a	n/a	n/a	n/a	n/a
427.8250000000001	3.9250000000000003	encoding	n/a	Novel	**BOTH**	VERTICAL	RIGHT*INDEX*	n/a	16.0	n/a	n/a	n/a	n/a	n/a	n/a	n/a	n/a	n/a
431.7500000000001	3.14	delay	n/a	n/a	n/a	n/a	n/a	n/a	n/a	n/a	n/a	n/a	n/a	n/a	n/a	n/a	n/a	n/a
434.8900000000001	2.355	trial	0.0	Novel	**BOTH**	VERTICAL	RIGHT*INDEX*	No Response	16.0	no_response	red	horizontal	low	constant	blue	horizontal	high	constant
437.2450000000001	1.57	ITI	n/a	n/a	n/a	n/a	n/a	n/a	n/a	n/a	n/a	n/a	n/a	n/a	n/a	n/a	n/a	n/a
438.8150000000001	2.355	trial	2380.0	Novel	**BOTH**	VERTICAL	RIGHT*INDEX*	Correct	16.0	right_middle_finger	red	horizontal	high	alarm	red	vertical	high	alarm
441.17000000000013	1.57	ITI	n/a	n/a	n/a	n/a	n/a	n/a	n/a	n/a	n/a	n/a	n/a	n/a	n/a	n/a	n/a	n/a
442.7400000000001	2.355	trial	1956.0	Novel	**BOTH**	VERTICAL	RIGHT*INDEX*	Correct	16.0	right_index_finger	red	vertical	high	constant	red	vertical	high	alarm
445.09500000000014	10.99	delay	n/a	n/a	n/a	n/a	n/a	n/a	n/a	n/a	n/a	n/a	n/a	n/a	n/a	n/a	n/a	n/a
