onset	duration	task_event	rt_in_ms	task_novelty	logic_rule	sensory_rule	motor_rule	performance	task_id	motor_response	stimulus1_color	stimulus1_orientation	stimulus1_pitch	stimulus1_continuity	stimulus2_color	stimulus2_orientation	stimulus2_pitch	stimulus2_continuity
0.0	3.9250000000000003	delay	n/a	n/a	n/a	n/a	n/a	n/a	n/a	n/a	n/a	n/a	n/a	n/a	n/a	n/a	n/a	n/a
3.9250000000000003	3.9250000000000003	encoding	n/a	Novel	**BOTH**	**RED***	RIGHT*INDEX*	n/a	12.0	n/a	n/a	n/a	n/a	n/a	n/a	n/a	n/a	n/a
7.8500000000000005	3.14	delay	n/a	n/a	n/a	n/a	n/a	n/a	n/a	n/a	n/a	n/a	n/a	n/a	n/a	n/a	n/a	n/a
10.99	2.355	trial	1775.0	Novel	**BOTH**	**RED***	RIGHT*INDEX*	Correct	12.0	right_index_finger	red	vertical	low	constant	red	horizontal	low	constant
13.345	1.57	ITI	n/a	n/a	n/a	n/a	n/a	n/a	n/a	n/a	n/a	n/a	n/a	n/a	n/a	n/a	n/a	n/a
14.915000000000001	2.355	trial	1284.0	Novel	**BOTH**	**RED***	RIGHT*INDEX*	Correct	12.0	right_middle_finger	blue	vertical	high	alarm	blue	horizontal	low	alarm
17.27	1.57	ITI	n/a	n/a	n/a	n/a	n/a	n/a	n/a	n/a	n/a	n/a	n/a	n/a	n/a	n/a	n/a	n/a
18.84	2.355	trial	1675.0	Novel	**BOTH**	**RED***	RIGHT*INDEX*	Correct	12.0	right_index_finger	red	vertical	high	constant	red	vertical	high	alarm
21.195	10.99	delay	n/a	n/a	n/a	n/a	n/a	n/a	n/a	n/a	n/a	n/a	n/a	n/a	n/a	n/a	n/a	n/a
32.185	3.9250000000000003	encoding	n/a	Novel	NOT*BOTH	CONSTANT	RIGHT*INDEX*	n/a	24.0	n/a	n/a	n/a	n/a	n/a	n/a	n/a	n/a	n/a
36.11	4.71	delay	n/a	n/a	n/a	n/a	n/a	n/a	n/a	n/a	n/a	n/a	n/a	n/a	n/a	n/a	n/a	n/a
40.82	2.355	trial	2047.0	Novel	NOT*BOTH	CONSTANT	RIGHT*INDEX*	Correct	24.0	right_middle_finger	blue	horizontal	high	constant	red	horizontal	high	constant
43.175	1.57	ITI	n/a	n/a	n/a	n/a	n/a	n/a	n/a	n/a	n/a	n/a	n/a	n/a	n/a	n/a	n/a	n/a
44.745	2.355	trial	2009.0	Novel	NOT*BOTH	CONSTANT	RIGHT*INDEX*	Correct	24.0	right_index_finger	blue	horizontal	high	constant	red	vertical	low	alarm
47.099999999999994	1.57	ITI	n/a	n/a	n/a	n/a	n/a	n/a	n/a	n/a	n/a	n/a	n/a	n/a	n/a	n/a	n/a	n/a
48.669999999999995	2.355	trial	1722.0	Novel	NOT*BOTH	CONSTANT	RIGHT*INDEX*	Correct	24.0	right_index_finger	blue	horizontal	low	constant	red	vertical	high	alarm
51.02499999999999	9.42	delay	n/a	n/a	n/a	n/a	n/a	n/a	n/a	n/a	n/a	n/a	n/a	n/a	n/a	n/a	n/a	n/a
60.44499999999999	3.9250000000000003	encoding	n/a	Novel	*EITHER*	**RED***	LEFT*MIDDLE*	n/a	41.0	n/a	n/a	n/a	n/a	n/a	n/a	n/a	n/a	n/a
64.36999999999999	6.28	delay	n/a	n/a	n/a	n/a	n/a	n/a	n/a	n/a	n/a	n/a	n/a	n/a	n/a	n/a	n/a	n/a
70.64999999999999	2.355	trial	2072.0	Novel	*EITHER*	**RED***	LEFT*MIDDLE*	Correct	41.0	left_index_finger	blue	vertical	high	alarm	blue	vertical	low	alarm
73.005	1.57	ITI	n/a	n/a	n/a	n/a	n/a	n/a	n/a	n/a	n/a	n/a	n/a	n/a	n/a	n/a	n/a	n/a
74.57499999999999	2.355	trial	2452.0	Novel	*EITHER*	**RED***	LEFT*MIDDLE*	Correct	41.0	left_index_finger	blue	horizontal	high	constant	blue	vertical	low	alarm
76.92999999999999	1.57	ITI	n/a	n/a	n/a	n/a	n/a	n/a	n/a	n/a	n/a	n/a	n/a	n/a	n/a	n/a	n/a	n/a
78.49999999999999	2.355	trial	1774.0	Novel	*EITHER*	**RED***	LEFT*MIDDLE*	Correct	41.0	left_middle_finger	blue	horizontal	high	alarm	red	horizontal	low	constant
80.85499999999999	7.85	delay	n/a	n/a	n/a	n/a	n/a	n/a	n/a	n/a	n/a	n/a	n/a	n/a	n/a	n/a	n/a	n/a
88.70499999999998	3.9250000000000003	encoding	n/a	Novel	NOT*BOTH	**RED***	*LEFT*INDEX*	n/a	26.0	n/a	n/a	n/a	n/a	n/a	n/a	n/a	n/a	n/a
92.62999999999998	6.28	delay	n/a	n/a	n/a	n/a	n/a	n/a	n/a	n/a	n/a	n/a	n/a	n/a	n/a	n/a	n/a	n/a
98.90999999999998	2.355	trial	1918.0	Novel	NOT*BOTH	**RED***	*LEFT*INDEX*	Correct	26.0	left_middle_finger	red	vertical	low	alarm	red	vertical	high	constant
101.26499999999999	1.57	ITI	n/a	n/a	n/a	n/a	n/a	n/a	n/a	n/a	n/a	n/a	n/a	n/a	n/a	n/a	n/a	n/a
102.83499999999998	2.355	trial	1849.0	Novel	NOT*BOTH	**RED***	*LEFT*INDEX*	Correct	26.0	left_middle_finger	red	horizontal	high	constant	red	vertical	low	alarm
105.18999999999998	1.57	ITI	n/a	n/a	n/a	n/a	n/a	n/a	n/a	n/a	n/a	n/a	n/a	n/a	n/a	n/a	n/a	n/a
106.75999999999998	2.355	trial	1685.0	Novel	NOT*BOTH	**RED***	*LEFT*INDEX*	Correct	26.0	left_middle_finger	red	horizontal	low	alarm	red	horizontal	low	alarm
109.11499999999998	7.85	delay	n/a	n/a	n/a	n/a	n/a	n/a	n/a	n/a	n/a	n/a	n/a	n/a	n/a	n/a	n/a	n/a
116.96499999999997	3.9250000000000003	encoding	n/a	Novel	*EITHER*	HI*PITCH	RIGHT*MIDDLE	n/a	35.0	n/a	n/a	n/a	n/a	n/a	n/a	n/a	n/a	n/a
120.88999999999997	2.355	delay	n/a	n/a	n/a	n/a	n/a	n/a	n/a	n/a	n/a	n/a	n/a	n/a	n/a	n/a	n/a	n/a
123.24499999999998	2.355	trial	2472.0	Novel	*EITHER*	HI*PITCH	RIGHT*MIDDLE	Correct	35.0	right_index_finger	red	horizontal	low	alarm	blue	horizontal	low	alarm
125.59999999999998	1.57	ITI	n/a	n/a	n/a	n/a	n/a	n/a	n/a	n/a	n/a	n/a	n/a	n/a	n/a	n/a	n/a	n/a
127.16999999999997	2.355	trial	1998.0	Novel	*EITHER*	HI*PITCH	RIGHT*MIDDLE	Correct	35.0	right_middle_finger	red	vertical	low	constant	red	vertical	high	constant
129.52499999999998	1.57	ITI	n/a	n/a	n/a	n/a	n/a	n/a	n/a	n/a	n/a	n/a	n/a	n/a	n/a	n/a	n/a	n/a
131.09499999999997	2.355	trial	1775.0	Novel	*EITHER*	HI*PITCH	RIGHT*MIDDLE	Correct	35.0	right_index_finger	red	vertical	low	alarm	blue	horizontal	low	constant
133.44999999999996	11.775	delay	n/a	n/a	n/a	n/a	n/a	n/a	n/a	n/a	n/a	n/a	n/a	n/a	n/a	n/a	n/a	n/a
145.22499999999997	3.9250000000000003	encoding	n/a	Novel	*EITHER*	**RED***	*LEFT*INDEX*	n/a	42.0	n/a	n/a	n/a	n/a	n/a	n/a	n/a	n/a	n/a
149.14999999999998	5.495	delay	n/a	n/a	n/a	n/a	n/a	n/a	n/a	n/a	n/a	n/a	n/a	n/a	n/a	n/a	n/a	n/a
154.64499999999998	2.355	trial	2001.0	Novel	*EITHER*	**RED***	*LEFT*INDEX*	Correct	42.0	left_middle_finger	blue	horizontal	low	alarm	blue	vertical	low	constant
156.99999999999997	1.57	ITI	n/a	n/a	n/a	n/a	n/a	n/a	n/a	n/a	n/a	n/a	n/a	n/a	n/a	n/a	n/a	n/a
158.56999999999996	2.355	trial	1624.0	Novel	*EITHER*	**RED***	*LEFT*INDEX*	Correct	42.0	left_middle_finger	blue	vertical	high	constant	blue	horizontal	low	constant
160.92499999999995	1.57	ITI	n/a	n/a	n/a	n/a	n/a	n/a	n/a	n/a	n/a	n/a	n/a	n/a	n/a	n/a	n/a	n/a
162.49499999999995	2.355	trial	806.0	Novel	*EITHER*	**RED***	*LEFT*INDEX*	Correct	42.0	left_index_finger	red	horizontal	low	alarm	red	horizontal	high	alarm
164.84999999999994	8.635	delay	n/a	n/a	n/a	n/a	n/a	n/a	n/a	n/a	n/a	n/a	n/a	n/a	n/a	n/a	n/a	n/a
173.48499999999993	3.9250000000000003	encoding	n/a	Novel	*EITHER*	CONSTANT	LEFT*MIDDLE*	n/a	37.0	n/a	n/a	n/a	n/a	n/a	n/a	n/a	n/a	n/a
177.40999999999994	4.71	delay	n/a	n/a	n/a	n/a	n/a	n/a	n/a	n/a	n/a	n/a	n/a	n/a	n/a	n/a	n/a	n/a
182.11999999999995	2.355	trial	1312.0	Novel	*EITHER*	CONSTANT	LEFT*MIDDLE*	Correct	37.0	left_middle_finger	blue	vertical	low	constant	red	horizontal	high	constant
184.47499999999994	1.57	ITI	n/a	n/a	n/a	n/a	n/a	n/a	n/a	n/a	n/a	n/a	n/a	n/a	n/a	n/a	n/a	n/a
186.04499999999993	2.355	trial	1761.0	Novel	*EITHER*	CONSTANT	LEFT*MIDDLE*	Correct	37.0	left_index_finger	red	vertical	high	alarm	red	vertical	high	alarm
188.39999999999992	1.57	ITI	n/a	n/a	n/a	n/a	n/a	n/a	n/a	n/a	n/a	n/a	n/a	n/a	n/a	n/a	n/a	n/a
189.9699999999999	2.355	trial	2061.0	Novel	*EITHER*	CONSTANT	LEFT*MIDDLE*	Correct	37.0	left_index_finger	red	vertical	high	alarm	red	vertical	low	alarm
192.3249999999999	9.42	delay	n/a	n/a	n/a	n/a	n/a	n/a	n/a	n/a	n/a	n/a	n/a	n/a	n/a	n/a	n/a	n/a
201.7449999999999	3.9250000000000003	encoding	n/a	Prac	**BOTH**	CONSTANT	RIGHT*MIDDLE	n/a	7.0	n/a	n/a	n/a	n/a	n/a	n/a	n/a	n/a	n/a
205.6699999999999	5.495	delay	n/a	n/a	n/a	n/a	n/a	n/a	n/a	n/a	n/a	n/a	n/a	n/a	n/a	n/a	n/a	n/a
211.1649999999999	2.355	trial	2087.0	Prac	**BOTH**	CONSTANT	RIGHT*MIDDLE	Correct	7.0	right_index_finger	red	horizontal	low	constant	red	horizontal	high	alarm
213.5199999999999	1.57	ITI	n/a	n/a	n/a	n/a	n/a	n/a	n/a	n/a	n/a	n/a	n/a	n/a	n/a	n/a	n/a	n/a
215.0899999999999	2.355	trial	1215.0	Prac	**BOTH**	CONSTANT	RIGHT*MIDDLE	Correct	7.0	right_index_finger	blue	vertical	low	alarm	red	horizontal	low	constant
217.44499999999988	1.57	ITI	n/a	n/a	n/a	n/a	n/a	n/a	n/a	n/a	n/a	n/a	n/a	n/a	n/a	n/a	n/a	n/a
219.01499999999987	2.355	trial	1747.0	Prac	**BOTH**	CONSTANT	RIGHT*MIDDLE	Correct	7.0	right_middle_finger	blue	vertical	low	constant	red	vertical	high	constant
221.36999999999986	8.635	delay	n/a	n/a	n/a	n/a	n/a	n/a	n/a	n/a	n/a	n/a	n/a	n/a	n/a	n/a	n/a	n/a
230.00499999999985	3.9250000000000003	encoding	n/a	Novel	NEITHER*	HI*PITCH	LEFT*MIDDLE*	n/a	49.0	n/a	n/a	n/a	n/a	n/a	n/a	n/a	n/a	n/a
233.92999999999986	5.495	delay	n/a	n/a	n/a	n/a	n/a	n/a	n/a	n/a	n/a	n/a	n/a	n/a	n/a	n/a	n/a	n/a
239.42499999999987	2.355	trial	2504.0	Novel	NEITHER*	HI*PITCH	LEFT*MIDDLE*	Correct	49.0	left_middle_finger	blue	horizontal	low	constant	red	horizontal	low	constant
241.77999999999986	1.57	ITI	n/a	n/a	n/a	n/a	n/a	n/a	n/a	n/a	n/a	n/a	n/a	n/a	n/a	n/a	n/a	n/a
243.34999999999985	2.355	trial	1013.0	Novel	NEITHER*	HI*PITCH	LEFT*MIDDLE*	Correct	49.0	left_index_finger	red	horizontal	high	constant	blue	vertical	low	alarm
245.70499999999984	1.57	ITI	n/a	n/a	n/a	n/a	n/a	n/a	n/a	n/a	n/a	n/a	n/a	n/a	n/a	n/a	n/a	n/a
247.27499999999984	2.355	trial	1708.0	Novel	NEITHER*	HI*PITCH	LEFT*MIDDLE*	Correct	49.0	left_middle_finger	blue	horizontal	low	alarm	red	horizontal	low	alarm
249.62999999999982	8.635	delay	n/a	n/a	n/a	n/a	n/a	n/a	n/a	n/a	n/a	n/a	n/a	n/a	n/a	n/a	n/a	n/a
258.2649999999998	3.9250000000000003	encoding	n/a	Novel	NOT*BOTH	HI*PITCH	RIGHT*INDEX*	n/a	20.0	n/a	n/a	n/a	n/a	n/a	n/a	n/a	n/a	n/a
262.1899999999998	5.495	delay	n/a	n/a	n/a	n/a	n/a	n/a	n/a	n/a	n/a	n/a	n/a	n/a	n/a	n/a	n/a	n/a
267.68499999999983	2.355	trial	823.0	Novel	NOT*BOTH	HI*PITCH	RIGHT*INDEX*	Correct	20.0	right_index_finger	blue	horizontal	low	alarm	red	horizontal	low	constant
270.03999999999985	1.57	ITI	n/a	n/a	n/a	n/a	n/a	n/a	n/a	n/a	n/a	n/a	n/a	n/a	n/a	n/a	n/a	n/a
271.60999999999984	2.355	trial	1536.0	Novel	NOT*BOTH	HI*PITCH	RIGHT*INDEX*	Correct	20.0	right_middle_finger	red	horizontal	high	alarm	red	horizontal	high	constant
273.96499999999986	1.57	ITI	n/a	n/a	n/a	n/a	n/a	n/a	n/a	n/a	n/a	n/a	n/a	n/a	n/a	n/a	n/a	n/a
275.53499999999985	2.355	trial	1840.0	Novel	NOT*BOTH	HI*PITCH	RIGHT*INDEX*	Correct	20.0	right_index_finger	blue	horizontal	low	alarm	blue	horizontal	high	constant
277.8899999999999	8.635	delay	n/a	n/a	n/a	n/a	n/a	n/a	n/a	n/a	n/a	n/a	n/a	n/a	n/a	n/a	n/a	n/a
286.52499999999986	3.9250000000000003	encoding	n/a	Novel	**BOTH**	VERTICAL	LEFT*MIDDLE*	n/a	13.0	n/a	n/a	n/a	n/a	n/a	n/a	n/a	n/a	n/a
290.4499999999999	3.14	delay	n/a	n/a	n/a	n/a	n/a	n/a	n/a	n/a	n/a	n/a	n/a	n/a	n/a	n/a	n/a	n/a
293.58999999999986	2.355	trial	1999.0	Novel	**BOTH**	VERTICAL	LEFT*MIDDLE*	Correct	13.0	left_index_finger	blue	horizontal	low	constant	red	horizontal	high	alarm
295.9449999999999	1.57	ITI	n/a	n/a	n/a	n/a	n/a	n/a	n/a	n/a	n/a	n/a	n/a	n/a	n/a	n/a	n/a	n/a
297.5149999999999	2.355	trial	1697.0	Novel	**BOTH**	VERTICAL	LEFT*MIDDLE*	Correct	13.0	left_index_finger	blue	vertical	low	constant	blue	horizontal	low	constant
299.8699999999999	1.57	ITI	n/a	n/a	n/a	n/a	n/a	n/a	n/a	n/a	n/a	n/a	n/a	n/a	n/a	n/a	n/a	n/a
301.4399999999999	2.355	trial	1456.0	Novel	**BOTH**	VERTICAL	LEFT*MIDDLE*	Correct	13.0	left_index_finger	blue	horizontal	high	alarm	blue	horizontal	high	alarm
303.7949999999999	10.99	delay	n/a	n/a	n/a	n/a	n/a	n/a	n/a	n/a	n/a	n/a	n/a	n/a	n/a	n/a	n/a	n/a
314.7849999999999	3.9250000000000003	encoding	n/a	Prac	NEITHER*	HI*PITCH	*LEFT*INDEX*	n/a	50.0	n/a	n/a	n/a	n/a	n/a	n/a	n/a	n/a	n/a
318.7099999999999	1.57	delay	n/a	n/a	n/a	n/a	n/a	n/a	n/a	n/a	n/a	n/a	n/a	n/a	n/a	n/a	n/a	n/a
320.2799999999999	2.355	trial	2564.0	Prac	NEITHER*	HI*PITCH	*LEFT*INDEX*	Wrong	50.0	left_index_finger	red	horizontal	high	constant	blue	vertical	low	constant
322.63499999999993	1.57	ITI	n/a	n/a	n/a	n/a	n/a	n/a	n/a	n/a	n/a	n/a	n/a	n/a	n/a	n/a	n/a	n/a
324.2049999999999	2.355	trial	2105.0	Prac	NEITHER*	HI*PITCH	*LEFT*INDEX*	Correct	50.0	left_index_finger	red	vertical	low	alarm	red	vertical	low	alarm
326.55999999999995	1.57	ITI	n/a	n/a	n/a	n/a	n/a	n/a	n/a	n/a	n/a	n/a	n/a	n/a	n/a	n/a	n/a	n/a
328.12999999999994	2.355	trial	1997.0	Prac	NEITHER*	HI*PITCH	*LEFT*INDEX*	Correct	50.0	left_index_finger	red	horizontal	low	constant	red	vertical	low	constant
330.48499999999996	12.56	delay	n/a	n/a	n/a	n/a	n/a	n/a	n/a	n/a	n/a	n/a	n/a	n/a	n/a	n/a	n/a	n/a
343.04499999999996	3.9250000000000003	encoding	n/a	Novel	*EITHER*	**RED***	RIGHT*INDEX*	n/a	44.0	n/a	n/a	n/a	n/a	n/a	n/a	n/a	n/a	n/a
346.96999999999997	1.57	delay	n/a	n/a	n/a	n/a	n/a	n/a	n/a	n/a	n/a	n/a	n/a	n/a	n/a	n/a	n/a	n/a
348.53999999999996	2.355	trial	1982.0	Novel	*EITHER*	**RED***	RIGHT*INDEX*	Correct	44.0	right_middle_finger	blue	vertical	low	alarm	blue	horizontal	high	constant
350.895	1.57	ITI	n/a	n/a	n/a	n/a	n/a	n/a	n/a	n/a	n/a	n/a	n/a	n/a	n/a	n/a	n/a	n/a
352.465	2.355	trial	1591.0	Novel	*EITHER*	**RED***	RIGHT*INDEX*	Correct	44.0	right_middle_finger	blue	horizontal	high	constant	blue	horizontal	high	alarm
354.82	1.57	ITI	n/a	n/a	n/a	n/a	n/a	n/a	n/a	n/a	n/a	n/a	n/a	n/a	n/a	n/a	n/a	n/a
356.39	2.355	trial	1816.0	Novel	*EITHER*	**RED***	RIGHT*INDEX*	Correct	44.0	right_middle_finger	blue	horizontal	high	constant	blue	vertical	high	constant
358.745	12.56	delay	n/a	n/a	n/a	n/a	n/a	n/a	n/a	n/a	n/a	n/a	n/a	n/a	n/a	n/a	n/a	n/a
371.305	3.9250000000000003	encoding	n/a	Novel	*EITHER*	HI*PITCH	RIGHT*INDEX*	n/a	36.0	n/a	n/a	n/a	n/a	n/a	n/a	n/a	n/a	n/a
375.23	6.28	delay	n/a	n/a	n/a	n/a	n/a	n/a	n/a	n/a	n/a	n/a	n/a	n/a	n/a	n/a	n/a	n/a
381.51	2.355	trial	1918.0	Novel	*EITHER*	HI*PITCH	RIGHT*INDEX*	Correct	36.0	right_middle_finger	blue	vertical	low	constant	blue	horizontal	low	alarm
383.865	1.57	ITI	n/a	n/a	n/a	n/a	n/a	n/a	n/a	n/a	n/a	n/a	n/a	n/a	n/a	n/a	n/a	n/a
385.435	2.355	trial	1660.0	Novel	*EITHER*	HI*PITCH	RIGHT*INDEX*	Correct	36.0	right_middle_finger	blue	vertical	low	alarm	blue	horizontal	low	constant
387.79	1.57	ITI	n/a	n/a	n/a	n/a	n/a	n/a	n/a	n/a	n/a	n/a	n/a	n/a	n/a	n/a	n/a	n/a
389.36	2.355	trial	1740.0	Novel	*EITHER*	HI*PITCH	RIGHT*INDEX*	Correct	36.0	right_middle_finger	red	horizontal	low	alarm	blue	horizontal	low	alarm
391.71500000000003	7.85	delay	n/a	n/a	n/a	n/a	n/a	n/a	n/a	n/a	n/a	n/a	n/a	n/a	n/a	n/a	n/a	n/a
399.56500000000005	3.9250000000000003	encoding	n/a	Novel	NEITHER*	VERTICAL	*LEFT*INDEX*	n/a	62.0	n/a	n/a	n/a	n/a	n/a	n/a	n/a	n/a	n/a
403.49000000000007	2.355	delay	n/a	n/a	n/a	n/a	n/a	n/a	n/a	n/a	n/a	n/a	n/a	n/a	n/a	n/a	n/a	n/a
405.8450000000001	2.355	trial	2273.0	Novel	NEITHER*	VERTICAL	*LEFT*INDEX*	Correct	62.0	left_middle_finger	blue	vertical	low	alarm	blue	horizontal	low	constant
408.2000000000001	1.57	ITI	n/a	n/a	n/a	n/a	n/a	n/a	n/a	n/a	n/a	n/a	n/a	n/a	n/a	n/a	n/a	n/a
409.7700000000001	2.355	trial	767.0	Novel	NEITHER*	VERTICAL	*LEFT*INDEX*	Correct	62.0	left_middle_finger	blue	vertical	high	alarm	blue	horizontal	low	constant
412.1250000000001	1.57	ITI	n/a	n/a	n/a	n/a	n/a	n/a	n/a	n/a	n/a	n/a	n/a	n/a	n/a	n/a	n/a	n/a
413.6950000000001	2.355	trial	1003.0	Novel	NEITHER*	VERTICAL	*LEFT*INDEX*	Correct	62.0	left_middle_finger	blue	vertical	high	constant	blue	horizontal	high	alarm
416.0500000000001	11.775	delay	n/a	n/a	n/a	n/a	n/a	n/a	n/a	n/a	n/a	n/a	n/a	n/a	n/a	n/a	n/a	n/a
427.8250000000001	3.9250000000000003	encoding	n/a	Novel	**BOTH**	**RED***	RIGHT*MIDDLE	n/a	11.0	n/a	n/a	n/a	n/a	n/a	n/a	n/a	n/a	n/a
431.7500000000001	5.495	delay	n/a	n/a	n/a	n/a	n/a	n/a	n/a	n/a	n/a	n/a	n/a	n/a	n/a	n/a	n/a	n/a
437.2450000000001	2.355	trial	1921.0	Novel	**BOTH**	**RED***	RIGHT*MIDDLE	Correct	11.0	right_middle_finger	red	horizontal	low	alarm	red	horizontal	low	alarm
439.60000000000014	1.57	ITI	n/a	n/a	n/a	n/a	n/a	n/a	n/a	n/a	n/a	n/a	n/a	n/a	n/a	n/a	n/a	n/a
441.17000000000013	2.355	trial	1658.0	Novel	**BOTH**	**RED***	RIGHT*MIDDLE	Correct	11.0	right_middle_finger	red	vertical	low	constant	red	horizontal	high	alarm
443.52500000000015	1.57	ITI	n/a	n/a	n/a	n/a	n/a	n/a	n/a	n/a	n/a	n/a	n/a	n/a	n/a	n/a	n/a	n/a
445.09500000000014	2.355	trial	1066.0	Novel	**BOTH**	**RED***	RIGHT*MIDDLE	Correct	11.0	right_index_finger	blue	vertical	low	alarm	red	horizontal	low	constant
447.45000000000016	8.635	delay	n/a	n/a	n/a	n/a	n/a	n/a	n/a	n/a	n/a	n/a	n/a	n/a	n/a	n/a	n/a	n/a
