onset	duration	task_event	rt_in_ms	task_novelty	logic_rule	sensory_rule	motor_rule	performance	task_id	motor_response	stimulus1_color	stimulus1_orientation	stimulus1_pitch	stimulus1_continuity	stimulus2_color	stimulus2_orientation	stimulus2_pitch	stimulus2_continuity
0.0	3.9250000000000003	delay	n/a	n/a	n/a	n/a	n/a	n/a	n/a	n/a	n/a	n/a	n/a	n/a	n/a	n/a	n/a	n/a
3.9250000000000003	3.9250000000000003	encoding	n/a	Novel	*EITHER*	CONSTANT	RIGHT*MIDDLE	n/a	39.0	n/a	n/a	n/a	n/a	n/a	n/a	n/a	n/a	n/a
7.8500000000000005	3.14	delay	n/a	n/a	n/a	n/a	n/a	n/a	n/a	n/a	n/a	n/a	n/a	n/a	n/a	n/a	n/a	n/a
10.99	2.355	trial	2298.0	Novel	*EITHER*	CONSTANT	RIGHT*MIDDLE	Correct	39.0	right_middle_finger	red	vertical	high	alarm	blue	horizontal	high	constant
13.345	1.57	ITI	n/a	n/a	n/a	n/a	n/a	n/a	n/a	n/a	n/a	n/a	n/a	n/a	n/a	n/a	n/a	n/a
14.915000000000001	2.355	trial	1886.0	Novel	*EITHER*	CONSTANT	RIGHT*MIDDLE	Wrong	39.0	right_index_finger	blue	horizontal	low	alarm	blue	horizontal	low	constant
17.27	1.57	ITI	n/a	n/a	n/a	n/a	n/a	n/a	n/a	n/a	n/a	n/a	n/a	n/a	n/a	n/a	n/a	n/a
18.84	2.355	trial	0.0	Novel	*EITHER*	CONSTANT	RIGHT*MIDDLE	No Response	39.0	no_response	blue	vertical	high	alarm	red	horizontal	high	alarm
21.195	10.99	delay	n/a	n/a	n/a	n/a	n/a	n/a	n/a	n/a	n/a	n/a	n/a	n/a	n/a	n/a	n/a	n/a
32.185	3.9250000000000003	encoding	n/a	Novel	*EITHER*	VERTICAL	*LEFT*INDEX*	n/a	46.0	n/a	n/a	n/a	n/a	n/a	n/a	n/a	n/a	n/a
36.11	3.14	delay	n/a	n/a	n/a	n/a	n/a	n/a	n/a	n/a	n/a	n/a	n/a	n/a	n/a	n/a	n/a	n/a
39.25	2.355	trial	2386.0	Novel	*EITHER*	VERTICAL	*LEFT*INDEX*	Correct	46.0	left_middle_finger	blue	horizontal	low	constant	blue	horizontal	low	constant
41.605	1.57	ITI	n/a	n/a	n/a	n/a	n/a	n/a	n/a	n/a	n/a	n/a	n/a	n/a	n/a	n/a	n/a	n/a
43.175	2.355	trial	828.0	Novel	*EITHER*	VERTICAL	*LEFT*INDEX*	Correct	46.0	left_index_finger	red	vertical	high	alarm	red	horizontal	high	constant
45.529999999999994	1.57	ITI	n/a	n/a	n/a	n/a	n/a	n/a	n/a	n/a	n/a	n/a	n/a	n/a	n/a	n/a	n/a	n/a
47.099999999999994	2.355	trial	0.0	Novel	*EITHER*	VERTICAL	*LEFT*INDEX*	No Response	46.0	no_response	red	horizontal	low	alarm	red	horizontal	high	constant
49.45499999999999	10.99	delay	n/a	n/a	n/a	n/a	n/a	n/a	n/a	n/a	n/a	n/a	n/a	n/a	n/a	n/a	n/a	n/a
60.44499999999999	3.9250000000000003	encoding	n/a	Novel	**BOTH**	**RED***	LEFT*MIDDLE*	n/a	9.0	n/a	n/a	n/a	n/a	n/a	n/a	n/a	n/a	n/a
64.36999999999999	4.71	delay	n/a	n/a	n/a	n/a	n/a	n/a	n/a	n/a	n/a	n/a	n/a	n/a	n/a	n/a	n/a	n/a
69.07999999999998	2.355	trial	2264.0	Novel	**BOTH**	**RED***	LEFT*MIDDLE*	Correct	9.0	left_index_finger	red	horizontal	high	alarm	blue	vertical	low	constant
71.43499999999999	1.57	ITI	n/a	n/a	n/a	n/a	n/a	n/a	n/a	n/a	n/a	n/a	n/a	n/a	n/a	n/a	n/a	n/a
73.00499999999998	2.355	trial	1528.0	Novel	**BOTH**	**RED***	LEFT*MIDDLE*	Correct	9.0	left_index_finger	blue	vertical	high	alarm	blue	vertical	high	alarm
75.35999999999999	1.57	ITI	n/a	n/a	n/a	n/a	n/a	n/a	n/a	n/a	n/a	n/a	n/a	n/a	n/a	n/a	n/a	n/a
76.92999999999998	2.355	trial	1663.0	Novel	**BOTH**	**RED***	LEFT*MIDDLE*	Correct	9.0	left_middle_finger	red	horizontal	high	alarm	red	vertical	low	constant
79.28499999999998	9.42	delay	n/a	n/a	n/a	n/a	n/a	n/a	n/a	n/a	n/a	n/a	n/a	n/a	n/a	n/a	n/a	n/a
88.70499999999998	3.9250000000000003	encoding	n/a	Novel	*EITHER*	HI*PITCH	RIGHT*INDEX*	n/a	36.0	n/a	n/a	n/a	n/a	n/a	n/a	n/a	n/a	n/a
92.62999999999998	4.71	delay	n/a	n/a	n/a	n/a	n/a	n/a	n/a	n/a	n/a	n/a	n/a	n/a	n/a	n/a	n/a	n/a
97.33999999999997	2.355	trial	1965.0	Novel	*EITHER*	HI*PITCH	RIGHT*INDEX*	Correct	36.0	right_middle_finger	blue	vertical	low	constant	red	vertical	low	alarm
99.69499999999998	1.57	ITI	n/a	n/a	n/a	n/a	n/a	n/a	n/a	n/a	n/a	n/a	n/a	n/a	n/a	n/a	n/a	n/a
101.26499999999997	2.355	trial	1867.0	Novel	*EITHER*	HI*PITCH	RIGHT*INDEX*	Correct	36.0	right_middle_finger	red	vertical	low	constant	blue	vertical	low	alarm
103.61999999999998	1.57	ITI	n/a	n/a	n/a	n/a	n/a	n/a	n/a	n/a	n/a	n/a	n/a	n/a	n/a	n/a	n/a	n/a
105.18999999999997	2.355	trial	1837.0	Novel	*EITHER*	HI*PITCH	RIGHT*INDEX*	Correct	36.0	right_middle_finger	red	horizontal	low	alarm	red	vertical	low	constant
107.54499999999997	9.42	delay	n/a	n/a	n/a	n/a	n/a	n/a	n/a	n/a	n/a	n/a	n/a	n/a	n/a	n/a	n/a	n/a
116.96499999999997	3.9250000000000003	encoding	n/a	Novel	NEITHER*	CONSTANT	*LEFT*INDEX*	n/a	54.0	n/a	n/a	n/a	n/a	n/a	n/a	n/a	n/a	n/a
120.88999999999997	5.495	delay	n/a	n/a	n/a	n/a	n/a	n/a	n/a	n/a	n/a	n/a	n/a	n/a	n/a	n/a	n/a	n/a
126.38499999999998	2.355	trial	2360.0	Novel	NEITHER*	CONSTANT	*LEFT*INDEX*	Correct	54.0	left_middle_finger	blue	vertical	high	constant	blue	vertical	high	constant
128.73999999999998	1.57	ITI	n/a	n/a	n/a	n/a	n/a	n/a	n/a	n/a	n/a	n/a	n/a	n/a	n/a	n/a	n/a	n/a
130.30999999999997	2.355	trial	996.0	Novel	NEITHER*	CONSTANT	*LEFT*INDEX*	Correct	54.0	left_middle_finger	blue	vertical	high	constant	blue	vertical	low	alarm
132.66499999999996	1.57	ITI	n/a	n/a	n/a	n/a	n/a	n/a	n/a	n/a	n/a	n/a	n/a	n/a	n/a	n/a	n/a	n/a
134.23499999999996	2.355	trial	973.0	Novel	NEITHER*	CONSTANT	*LEFT*INDEX*	Correct	54.0	left_middle_finger	red	horizontal	low	constant	red	vertical	high	alarm
136.58999999999995	8.635	delay	n/a	n/a	n/a	n/a	n/a	n/a	n/a	n/a	n/a	n/a	n/a	n/a	n/a	n/a	n/a	n/a
145.22499999999994	3.9250000000000003	encoding	n/a	Novel	NEITHER*	HI*PITCH	RIGHT*INDEX*	n/a	52.0	n/a	n/a	n/a	n/a	n/a	n/a	n/a	n/a	n/a
149.14999999999995	4.71	delay	n/a	n/a	n/a	n/a	n/a	n/a	n/a	n/a	n/a	n/a	n/a	n/a	n/a	n/a	n/a	n/a
153.85999999999996	2.355	trial	2080.0	Novel	NEITHER*	HI*PITCH	RIGHT*INDEX*	Correct	52.0	right_middle_finger	red	horizontal	high	alarm	blue	horizontal	high	constant
156.21499999999995	1.57	ITI	n/a	n/a	n/a	n/a	n/a	n/a	n/a	n/a	n/a	n/a	n/a	n/a	n/a	n/a	n/a	n/a
157.78499999999994	2.355	trial	1708.0	Novel	NEITHER*	HI*PITCH	RIGHT*INDEX*	Correct	52.0	right_index_finger	red	horizontal	low	constant	blue	vertical	low	alarm
160.13999999999993	1.57	ITI	n/a	n/a	n/a	n/a	n/a	n/a	n/a	n/a	n/a	n/a	n/a	n/a	n/a	n/a	n/a	n/a
161.70999999999992	2.355	trial	1643.0	Novel	NEITHER*	HI*PITCH	RIGHT*INDEX*	Correct	52.0	right_index_finger	blue	vertical	low	constant	red	horizontal	low	constant
164.0649999999999	9.42	delay	n/a	n/a	n/a	n/a	n/a	n/a	n/a	n/a	n/a	n/a	n/a	n/a	n/a	n/a	n/a	n/a
173.4849999999999	3.9250000000000003	encoding	n/a	Novel	*EITHER*	VERTICAL	LEFT*MIDDLE*	n/a	45.0	n/a	n/a	n/a	n/a	n/a	n/a	n/a	n/a	n/a
177.4099999999999	5.495	delay	n/a	n/a	n/a	n/a	n/a	n/a	n/a	n/a	n/a	n/a	n/a	n/a	n/a	n/a	n/a	n/a
182.90499999999992	2.355	trial	2043.0	Novel	*EITHER*	VERTICAL	LEFT*MIDDLE*	Correct	45.0	left_index_finger	blue	horizontal	low	constant	blue	horizontal	high	constant
185.2599999999999	1.57	ITI	n/a	n/a	n/a	n/a	n/a	n/a	n/a	n/a	n/a	n/a	n/a	n/a	n/a	n/a	n/a	n/a
186.8299999999999	2.355	trial	1967.0	Novel	*EITHER*	VERTICAL	LEFT*MIDDLE*	Correct	45.0	left_index_finger	blue	horizontal	high	constant	blue	horizontal	high	alarm
189.1849999999999	1.57	ITI	n/a	n/a	n/a	n/a	n/a	n/a	n/a	n/a	n/a	n/a	n/a	n/a	n/a	n/a	n/a	n/a
190.75499999999988	2.355	trial	1854.0	Novel	*EITHER*	VERTICAL	LEFT*MIDDLE*	Correct	45.0	left_index_finger	red	horizontal	low	constant	red	horizontal	high	constant
193.10999999999987	8.635	delay	n/a	n/a	n/a	n/a	n/a	n/a	n/a	n/a	n/a	n/a	n/a	n/a	n/a	n/a	n/a	n/a
201.74499999999986	3.9250000000000003	encoding	n/a	Novel	NOT*BOTH	**RED***	*LEFT*INDEX*	n/a	26.0	n/a	n/a	n/a	n/a	n/a	n/a	n/a	n/a	n/a
205.66999999999987	2.355	delay	n/a	n/a	n/a	n/a	n/a	n/a	n/a	n/a	n/a	n/a	n/a	n/a	n/a	n/a	n/a	n/a
208.02499999999986	2.355	trial	1788.0	Novel	NOT*BOTH	**RED***	*LEFT*INDEX*	Correct	26.0	left_middle_finger	red	vertical	high	alarm	red	horizontal	low	alarm
210.37999999999985	1.57	ITI	n/a	n/a	n/a	n/a	n/a	n/a	n/a	n/a	n/a	n/a	n/a	n/a	n/a	n/a	n/a	n/a
211.94999999999985	2.355	trial	1232.0	Novel	NOT*BOTH	**RED***	*LEFT*INDEX*	Correct	26.0	left_index_finger	blue	horizontal	high	alarm	red	horizontal	low	alarm
214.30499999999984	1.57	ITI	n/a	n/a	n/a	n/a	n/a	n/a	n/a	n/a	n/a	n/a	n/a	n/a	n/a	n/a	n/a	n/a
215.87499999999983	2.355	trial	1820.0	Novel	NOT*BOTH	**RED***	*LEFT*INDEX*	Correct	26.0	left_middle_finger	red	vertical	high	alarm	red	horizontal	high	constant
218.22999999999982	11.775	delay	n/a	n/a	n/a	n/a	n/a	n/a	n/a	n/a	n/a	n/a	n/a	n/a	n/a	n/a	n/a	n/a
230.00499999999982	3.9250000000000003	encoding	n/a	Novel	NOT*BOTH	VERTICAL	RIGHT*MIDDLE	n/a	31.0	n/a	n/a	n/a	n/a	n/a	n/a	n/a	n/a	n/a
233.92999999999984	3.14	delay	n/a	n/a	n/a	n/a	n/a	n/a	n/a	n/a	n/a	n/a	n/a	n/a	n/a	n/a	n/a	n/a
237.06999999999982	2.355	trial	1909.0	Novel	NOT*BOTH	VERTICAL	RIGHT*MIDDLE	Correct	31.0	right_middle_finger	blue	vertical	high	constant	red	horizontal	high	alarm
239.4249999999998	1.57	ITI	n/a	n/a	n/a	n/a	n/a	n/a	n/a	n/a	n/a	n/a	n/a	n/a	n/a	n/a	n/a	n/a
240.9949999999998	2.355	trial	1488.0	Novel	NOT*BOTH	VERTICAL	RIGHT*MIDDLE	Correct	31.0	right_middle_finger	blue	horizontal	low	constant	red	vertical	low	alarm
243.3499999999998	1.57	ITI	n/a	n/a	n/a	n/a	n/a	n/a	n/a	n/a	n/a	n/a	n/a	n/a	n/a	n/a	n/a	n/a
244.9199999999998	2.355	trial	626.0	Novel	NOT*BOTH	VERTICAL	RIGHT*MIDDLE	Correct	31.0	right_middle_finger	red	horizontal	low	alarm	red	vertical	high	alarm
247.27499999999978	10.99	delay	n/a	n/a	n/a	n/a	n/a	n/a	n/a	n/a	n/a	n/a	n/a	n/a	n/a	n/a	n/a	n/a
258.26499999999976	3.9250000000000003	encoding	n/a	Novel	**BOTH**	VERTICAL	RIGHT*INDEX*	n/a	16.0	n/a	n/a	n/a	n/a	n/a	n/a	n/a	n/a	n/a
262.18999999999977	3.925	delay	n/a	n/a	n/a	n/a	n/a	n/a	n/a	n/a	n/a	n/a	n/a	n/a	n/a	n/a	n/a	n/a
266.1149999999998	2.355	trial	1863.0	Novel	**BOTH**	VERTICAL	RIGHT*INDEX*	Correct	16.0	right_index_finger	blue	vertical	high	alarm	red	vertical	high	alarm
268.4699999999998	1.57	ITI	n/a	n/a	n/a	n/a	n/a	n/a	n/a	n/a	n/a	n/a	n/a	n/a	n/a	n/a	n/a	n/a
270.0399999999998	2.355	trial	1627.0	Novel	**BOTH**	VERTICAL	RIGHT*INDEX*	Correct	16.0	right_index_finger	red	vertical	low	constant	blue	vertical	low	constant
272.3949999999998	1.57	ITI	n/a	n/a	n/a	n/a	n/a	n/a	n/a	n/a	n/a	n/a	n/a	n/a	n/a	n/a	n/a	n/a
273.9649999999998	2.355	trial	1890.0	Novel	**BOTH**	VERTICAL	RIGHT*INDEX*	Correct	16.0	right_middle_finger	red	vertical	high	constant	blue	horizontal	low	constant
276.3199999999998	10.205	delay	n/a	n/a	n/a	n/a	n/a	n/a	n/a	n/a	n/a	n/a	n/a	n/a	n/a	n/a	n/a	n/a
286.5249999999998	3.9250000000000003	encoding	n/a	Prac	NEITHER*	VERTICAL	LEFT*MIDDLE*	n/a	61.0	n/a	n/a	n/a	n/a	n/a	n/a	n/a	n/a	n/a
290.4499999999998	6.28	delay	n/a	n/a	n/a	n/a	n/a	n/a	n/a	n/a	n/a	n/a	n/a	n/a	n/a	n/a	n/a	n/a
296.7299999999998	2.355	trial	1690.0	Prac	NEITHER*	VERTICAL	LEFT*MIDDLE*	Correct	61.0	left_middle_finger	blue	horizontal	high	alarm	blue	horizontal	high	constant
299.0849999999998	1.57	ITI	n/a	n/a	n/a	n/a	n/a	n/a	n/a	n/a	n/a	n/a	n/a	n/a	n/a	n/a	n/a	n/a
300.6549999999998	2.355	trial	1725.0	Prac	NEITHER*	VERTICAL	LEFT*MIDDLE*	Correct	61.0	left_middle_finger	blue	horizontal	high	alarm	red	horizontal	low	constant
303.0099999999998	1.57	ITI	n/a	n/a	n/a	n/a	n/a	n/a	n/a	n/a	n/a	n/a	n/a	n/a	n/a	n/a	n/a	n/a
304.5799999999998	2.355	trial	981.0	Prac	NEITHER*	VERTICAL	LEFT*MIDDLE*	Correct	61.0	left_index_finger	blue	vertical	high	alarm	red	vertical	high	constant
306.93499999999983	7.85	delay	n/a	n/a	n/a	n/a	n/a	n/a	n/a	n/a	n/a	n/a	n/a	n/a	n/a	n/a	n/a	n/a
314.78499999999985	3.9250000000000003	encoding	n/a	Novel	*EITHER*	**RED***	LEFT*MIDDLE*	n/a	41.0	n/a	n/a	n/a	n/a	n/a	n/a	n/a	n/a	n/a
318.70999999999987	3.925	delay	n/a	n/a	n/a	n/a	n/a	n/a	n/a	n/a	n/a	n/a	n/a	n/a	n/a	n/a	n/a	n/a
322.6349999999999	2.355	trial	2461.0	Novel	*EITHER*	**RED***	LEFT*MIDDLE*	Correct	41.0	left_index_finger	blue	vertical	low	alarm	blue	horizontal	low	alarm
324.9899999999999	1.57	ITI	n/a	n/a	n/a	n/a	n/a	n/a	n/a	n/a	n/a	n/a	n/a	n/a	n/a	n/a	n/a	n/a
326.5599999999999	2.355	trial	1754.0	Novel	*EITHER*	**RED***	LEFT*MIDDLE*	Correct	41.0	left_index_finger	blue	horizontal	low	constant	blue	horizontal	low	constant
328.9149999999999	1.57	ITI	n/a	n/a	n/a	n/a	n/a	n/a	n/a	n/a	n/a	n/a	n/a	n/a	n/a	n/a	n/a	n/a
330.4849999999999	2.355	trial	1777.0	Novel	*EITHER*	**RED***	LEFT*MIDDLE*	Correct	41.0	left_middle_finger	blue	vertical	low	alarm	red	vertical	low	alarm
332.8399999999999	10.205	delay	n/a	n/a	n/a	n/a	n/a	n/a	n/a	n/a	n/a	n/a	n/a	n/a	n/a	n/a	n/a	n/a
343.0449999999999	3.9250000000000003	encoding	n/a	Novel	*EITHER*	CONSTANT	*LEFT*INDEX*	n/a	38.0	n/a	n/a	n/a	n/a	n/a	n/a	n/a	n/a	n/a
346.9699999999999	2.355	delay	n/a	n/a	n/a	n/a	n/a	n/a	n/a	n/a	n/a	n/a	n/a	n/a	n/a	n/a	n/a	n/a
349.32499999999993	2.355	trial	2099.0	Novel	*EITHER*	CONSTANT	*LEFT*INDEX*	Correct	38.0	left_index_finger	red	horizontal	high	constant	red	horizontal	high	constant
351.67999999999995	1.57	ITI	n/a	n/a	n/a	n/a	n/a	n/a	n/a	n/a	n/a	n/a	n/a	n/a	n/a	n/a	n/a	n/a
353.24999999999994	2.355	trial	1503.0	Novel	*EITHER*	CONSTANT	*LEFT*INDEX*	Correct	38.0	left_index_finger	red	horizontal	low	constant	red	vertical	low	constant
355.60499999999996	1.57	ITI	n/a	n/a	n/a	n/a	n/a	n/a	n/a	n/a	n/a	n/a	n/a	n/a	n/a	n/a	n/a	n/a
357.17499999999995	2.355	trial	492.0	Novel	*EITHER*	CONSTANT	*LEFT*INDEX*	Correct	38.0	left_index_finger	red	vertical	high	constant	red	vertical	high	alarm
359.53	11.775	delay	n/a	n/a	n/a	n/a	n/a	n/a	n/a	n/a	n/a	n/a	n/a	n/a	n/a	n/a	n/a	n/a
371.30499999999995	3.9250000000000003	encoding	n/a	Novel	**BOTH**	**RED***	RIGHT*MIDDLE	n/a	11.0	n/a	n/a	n/a	n/a	n/a	n/a	n/a	n/a	n/a
375.22999999999996	5.495	delay	n/a	n/a	n/a	n/a	n/a	n/a	n/a	n/a	n/a	n/a	n/a	n/a	n/a	n/a	n/a	n/a
380.72499999999997	2.355	trial	1913.0	Novel	**BOTH**	**RED***	RIGHT*MIDDLE	Correct	11.0	right_middle_finger	red	horizontal	low	alarm	red	horizontal	high	alarm
383.08	1.57	ITI	n/a	n/a	n/a	n/a	n/a	n/a	n/a	n/a	n/a	n/a	n/a	n/a	n/a	n/a	n/a	n/a
384.65	2.355	trial	1656.0	Novel	**BOTH**	**RED***	RIGHT*MIDDLE	Correct	11.0	right_middle_finger	red	vertical	high	alarm	red	horizontal	high	alarm
387.005	1.57	ITI	n/a	n/a	n/a	n/a	n/a	n/a	n/a	n/a	n/a	n/a	n/a	n/a	n/a	n/a	n/a	n/a
388.575	2.355	trial	489.0	Novel	**BOTH**	**RED***	RIGHT*MIDDLE	Wrong	11.0	right_middle_finger	red	horizontal	low	constant	blue	vertical	high	alarm
390.93	8.635	delay	n/a	n/a	n/a	n/a	n/a	n/a	n/a	n/a	n/a	n/a	n/a	n/a	n/a	n/a	n/a	n/a
399.565	3.9250000000000003	encoding	n/a	Novel	**BOTH**	CONSTANT	LEFT*MIDDLE*	n/a	5.0	n/a	n/a	n/a	n/a	n/a	n/a	n/a	n/a	n/a
403.49	1.57	delay	n/a	n/a	n/a	n/a	n/a	n/a	n/a	n/a	n/a	n/a	n/a	n/a	n/a	n/a	n/a	n/a
405.06	2.355	trial	2499.0	Novel	**BOTH**	CONSTANT	LEFT*MIDDLE*	Correct	5.0	left_index_finger	red	vertical	high	constant	blue	horizontal	low	alarm
407.415	1.57	ITI	n/a	n/a	n/a	n/a	n/a	n/a	n/a	n/a	n/a	n/a	n/a	n/a	n/a	n/a	n/a	n/a
408.985	2.355	trial	2255.0	Novel	**BOTH**	CONSTANT	LEFT*MIDDLE*	Correct	5.0	left_middle_finger	red	vertical	high	constant	blue	horizontal	low	constant
411.34000000000003	1.57	ITI	n/a	n/a	n/a	n/a	n/a	n/a	n/a	n/a	n/a	n/a	n/a	n/a	n/a	n/a	n/a	n/a
412.91	2.355	trial	0.0	Novel	**BOTH**	CONSTANT	LEFT*MIDDLE*	No Response	5.0	no_response	red	vertical	low	alarm	red	horizontal	low	alarm
415.26500000000004	12.56	delay	n/a	n/a	n/a	n/a	n/a	n/a	n/a	n/a	n/a	n/a	n/a	n/a	n/a	n/a	n/a	n/a
427.82500000000005	3.9250000000000003	encoding	n/a	Novel	NEITHER*	**RED***	RIGHT*MIDDLE	n/a	59.0	n/a	n/a	n/a	n/a	n/a	n/a	n/a	n/a	n/a
431.75000000000006	4.71	delay	n/a	n/a	n/a	n/a	n/a	n/a	n/a	n/a	n/a	n/a	n/a	n/a	n/a	n/a	n/a	n/a
436.46000000000004	2.355	trial	2051.0	Novel	NEITHER*	**RED***	RIGHT*MIDDLE	Correct	59.0	right_index_finger	blue	horizontal	low	alarm	red	horizontal	high	constant
438.81500000000005	1.57	ITI	n/a	n/a	n/a	n/a	n/a	n/a	n/a	n/a	n/a	n/a	n/a	n/a	n/a	n/a	n/a	n/a
440.38500000000005	2.355	trial	1926.0	Novel	NEITHER*	**RED***	RIGHT*MIDDLE	Correct	59.0	right_middle_finger	blue	vertical	high	constant	blue	horizontal	high	alarm
442.74000000000007	1.57	ITI	n/a	n/a	n/a	n/a	n/a	n/a	n/a	n/a	n/a	n/a	n/a	n/a	n/a	n/a	n/a	n/a
444.31000000000006	2.355	trial	1554.0	Novel	NEITHER*	**RED***	RIGHT*MIDDLE	Correct	59.0	right_index_finger	red	horizontal	high	constant	blue	horizontal	high	constant
446.6650000000001	9.42	delay	n/a	n/a	n/a	n/a	n/a	n/a	n/a	n/a	n/a	n/a	n/a	n/a	n/a	n/a	n/a	n/a
