onset	duration	task_event	rt_in_ms	task_novelty	logic_rule	sensory_rule	motor_rule	performance	task_id	motor_response	stimulus1_color	stimulus1_orientation	stimulus1_pitch	stimulus1_continuity	stimulus2_color	stimulus2_orientation	stimulus2_pitch	stimulus2_continuity
0.0	3.9250000000000003	delay	n/a	n/a	n/a	n/a	n/a	n/a	n/a	n/a	n/a	n/a	n/a	n/a	n/a	n/a	n/a	n/a
3.9250000000000003	3.9250000000000003	encoding	n/a	Prac	*EITHER*	CONSTANT	*LEFT*INDEX*	n/a	38.0	n/a	n/a	n/a	n/a	n/a	n/a	n/a	n/a	n/a
7.8500000000000005	1.57	delay	n/a	n/a	n/a	n/a	n/a	n/a	n/a	n/a	n/a	n/a	n/a	n/a	n/a	n/a	n/a	n/a
9.42	2.355	trial	2241.0	Prac	*EITHER*	CONSTANT	*LEFT*INDEX*	Correct	38.0	left_middle_finger	red	vertical	high	alarm	red	horizontal	low	alarm
11.775	1.57	ITI	n/a	n/a	n/a	n/a	n/a	n/a	n/a	n/a	n/a	n/a	n/a	n/a	n/a	n/a	n/a	n/a
13.345	2.355	trial	1865.0	Prac	*EITHER*	CONSTANT	*LEFT*INDEX*	Correct	38.0	left_index_finger	red	horizontal	low	alarm	blue	horizontal	low	constant
15.700000000000001	1.57	ITI	n/a	n/a	n/a	n/a	n/a	n/a	n/a	n/a	n/a	n/a	n/a	n/a	n/a	n/a	n/a	n/a
17.27	2.355	trial	1911.0	Prac	*EITHER*	CONSTANT	*LEFT*INDEX*	Correct	38.0	left_middle_finger	blue	vertical	low	alarm	red	horizontal	low	alarm
19.625	12.56	delay	n/a	n/a	n/a	n/a	n/a	n/a	n/a	n/a	n/a	n/a	n/a	n/a	n/a	n/a	n/a	n/a
32.185	3.9250000000000003	encoding	n/a	Novel	NEITHER*	HI*PITCH	RIGHT*MIDDLE	n/a	51.0	n/a	n/a	n/a	n/a	n/a	n/a	n/a	n/a	n/a
36.11	3.14	delay	n/a	n/a	n/a	n/a	n/a	n/a	n/a	n/a	n/a	n/a	n/a	n/a	n/a	n/a	n/a	n/a
39.25	2.355	trial	1986.0	Novel	NEITHER*	HI*PITCH	RIGHT*MIDDLE	Correct	51.0	right_index_finger	blue	horizontal	high	alarm	red	horizontal	high	constant
41.605	1.57	ITI	n/a	n/a	n/a	n/a	n/a	n/a	n/a	n/a	n/a	n/a	n/a	n/a	n/a	n/a	n/a	n/a
43.175	2.355	trial	2101.0	Novel	NEITHER*	HI*PITCH	RIGHT*MIDDLE	Correct	51.0	right_middle_finger	red	vertical	low	constant	blue	vertical	low	constant
45.529999999999994	1.57	ITI	n/a	n/a	n/a	n/a	n/a	n/a	n/a	n/a	n/a	n/a	n/a	n/a	n/a	n/a	n/a	n/a
47.099999999999994	2.355	trial	0.0	Novel	NEITHER*	HI*PITCH	RIGHT*MIDDLE	No Response	51.0	no_response	blue	vertical	high	constant	blue	vertical	low	alarm
49.45499999999999	10.99	delay	n/a	n/a	n/a	n/a	n/a	n/a	n/a	n/a	n/a	n/a	n/a	n/a	n/a	n/a	n/a	n/a
60.44499999999999	3.9250000000000003	encoding	n/a	Novel	NEITHER*	**RED***	RIGHT*INDEX*	n/a	60.0	n/a	n/a	n/a	n/a	n/a	n/a	n/a	n/a	n/a
64.36999999999999	3.14	delay	n/a	n/a	n/a	n/a	n/a	n/a	n/a	n/a	n/a	n/a	n/a	n/a	n/a	n/a	n/a	n/a
67.50999999999999	2.355	trial	2133.0	Novel	NEITHER*	**RED***	RIGHT*INDEX*	Correct	60.0	right_index_finger	blue	vertical	high	alarm	blue	vertical	low	alarm
69.865	1.57	ITI	n/a	n/a	n/a	n/a	n/a	n/a	n/a	n/a	n/a	n/a	n/a	n/a	n/a	n/a	n/a	n/a
71.43499999999999	2.355	trial	2013.0	Novel	NEITHER*	**RED***	RIGHT*INDEX*	Correct	60.0	right_middle_finger	red	vertical	low	alarm	blue	horizontal	high	alarm
73.78999999999999	1.57	ITI	n/a	n/a	n/a	n/a	n/a	n/a	n/a	n/a	n/a	n/a	n/a	n/a	n/a	n/a	n/a	n/a
75.35999999999999	2.355	trial	1854.0	Novel	NEITHER*	**RED***	RIGHT*INDEX*	Correct	60.0	right_index_finger	blue	horizontal	high	constant	blue	vertical	low	alarm
77.71499999999999	10.99	delay	n/a	n/a	n/a	n/a	n/a	n/a	n/a	n/a	n/a	n/a	n/a	n/a	n/a	n/a	n/a	n/a
88.70499999999998	3.9250000000000003	encoding	n/a	Novel	NEITHER*	VERTICAL	*LEFT*INDEX*	n/a	62.0	n/a	n/a	n/a	n/a	n/a	n/a	n/a	n/a	n/a
92.62999999999998	4.71	delay	n/a	n/a	n/a	n/a	n/a	n/a	n/a	n/a	n/a	n/a	n/a	n/a	n/a	n/a	n/a	n/a
97.33999999999997	2.355	trial	1790.0	Novel	NEITHER*	VERTICAL	*LEFT*INDEX*	Correct	62.0	left_index_finger	red	horizontal	low	constant	red	horizontal	low	constant
99.69499999999998	1.57	ITI	n/a	n/a	n/a	n/a	n/a	n/a	n/a	n/a	n/a	n/a	n/a	n/a	n/a	n/a	n/a	n/a
101.26499999999997	2.355	trial	1643.0	Novel	NEITHER*	VERTICAL	*LEFT*INDEX*	Correct	62.0	left_middle_finger	red	vertical	low	constant	blue	vertical	low	alarm
103.61999999999998	1.57	ITI	n/a	n/a	n/a	n/a	n/a	n/a	n/a	n/a	n/a	n/a	n/a	n/a	n/a	n/a	n/a	n/a
105.18999999999997	2.355	trial	1634.0	Novel	NEITHER*	VERTICAL	*LEFT*INDEX*	Correct	62.0	left_index_finger	red	horizontal	high	alarm	blue	horizontal	low	alarm
107.54499999999997	9.42	delay	n/a	n/a	n/a	n/a	n/a	n/a	n/a	n/a	n/a	n/a	n/a	n/a	n/a	n/a	n/a	n/a
116.96499999999997	3.9250000000000003	encoding	n/a	Novel	**BOTH**	CONSTANT	LEFT*MIDDLE*	n/a	5.0	n/a	n/a	n/a	n/a	n/a	n/a	n/a	n/a	n/a
120.88999999999997	4.71	delay	n/a	n/a	n/a	n/a	n/a	n/a	n/a	n/a	n/a	n/a	n/a	n/a	n/a	n/a	n/a	n/a
125.59999999999997	2.355	trial	2038.0	Novel	**BOTH**	CONSTANT	LEFT*MIDDLE*	Correct	5.0	left_middle_finger	blue	horizontal	high	constant	blue	vertical	low	constant
127.95499999999997	1.57	ITI	n/a	n/a	n/a	n/a	n/a	n/a	n/a	n/a	n/a	n/a	n/a	n/a	n/a	n/a	n/a	n/a
129.52499999999998	2.355	trial	2010.0	Novel	**BOTH**	CONSTANT	LEFT*MIDDLE*	Correct	5.0	left_middle_finger	blue	vertical	high	constant	blue	vertical	high	constant
131.87999999999997	1.57	ITI	n/a	n/a	n/a	n/a	n/a	n/a	n/a	n/a	n/a	n/a	n/a	n/a	n/a	n/a	n/a	n/a
133.44999999999996	2.355	trial	1727.0	Novel	**BOTH**	CONSTANT	LEFT*MIDDLE*	Correct	5.0	left_index_finger	blue	vertical	low	alarm	blue	horizontal	high	alarm
135.80499999999995	9.42	delay	n/a	n/a	n/a	n/a	n/a	n/a	n/a	n/a	n/a	n/a	n/a	n/a	n/a	n/a	n/a	n/a
145.22499999999994	3.9250000000000003	encoding	n/a	Novel	NOT*BOTH	CONSTANT	RIGHT*MIDDLE	n/a	23.0	n/a	n/a	n/a	n/a	n/a	n/a	n/a	n/a	n/a
149.14999999999995	2.355	delay	n/a	n/a	n/a	n/a	n/a	n/a	n/a	n/a	n/a	n/a	n/a	n/a	n/a	n/a	n/a	n/a
151.50499999999994	2.355	trial	2139.0	Novel	NOT*BOTH	CONSTANT	RIGHT*MIDDLE	Correct	23.0	right_index_finger	red	vertical	high	constant	blue	vertical	low	constant
153.85999999999993	1.57	ITI	n/a	n/a	n/a	n/a	n/a	n/a	n/a	n/a	n/a	n/a	n/a	n/a	n/a	n/a	n/a	n/a
155.42999999999992	2.355	trial	1826.0	Novel	NOT*BOTH	CONSTANT	RIGHT*MIDDLE	Wrong	23.0	right_index_finger	red	horizontal	high	constant	red	horizontal	high	alarm
157.7849999999999	1.57	ITI	n/a	n/a	n/a	n/a	n/a	n/a	n/a	n/a	n/a	n/a	n/a	n/a	n/a	n/a	n/a	n/a
159.3549999999999	2.355	trial	1962.0	Novel	NOT*BOTH	CONSTANT	RIGHT*MIDDLE	Correct	23.0	right_index_finger	red	horizontal	high	constant	blue	horizontal	low	constant
161.7099999999999	11.775	delay	n/a	n/a	n/a	n/a	n/a	n/a	n/a	n/a	n/a	n/a	n/a	n/a	n/a	n/a	n/a	n/a
173.4849999999999	3.9250000000000003	encoding	n/a	Novel	*EITHER*	CONSTANT	RIGHT*MIDDLE	n/a	39.0	n/a	n/a	n/a	n/a	n/a	n/a	n/a	n/a	n/a
177.4099999999999	4.71	delay	n/a	n/a	n/a	n/a	n/a	n/a	n/a	n/a	n/a	n/a	n/a	n/a	n/a	n/a	n/a	n/a
182.11999999999992	2.355	trial	1943.0	Novel	*EITHER*	CONSTANT	RIGHT*MIDDLE	Correct	39.0	right_middle_finger	blue	vertical	high	alarm	red	vertical	high	constant
184.4749999999999	1.57	ITI	n/a	n/a	n/a	n/a	n/a	n/a	n/a	n/a	n/a	n/a	n/a	n/a	n/a	n/a	n/a	n/a
186.0449999999999	2.355	trial	1797.0	Novel	*EITHER*	CONSTANT	RIGHT*MIDDLE	Correct	39.0	right_middle_finger	blue	horizontal	high	alarm	blue	vertical	high	constant
188.3999999999999	1.57	ITI	n/a	n/a	n/a	n/a	n/a	n/a	n/a	n/a	n/a	n/a	n/a	n/a	n/a	n/a	n/a	n/a
189.96999999999989	2.355	trial	1955.0	Novel	*EITHER*	CONSTANT	RIGHT*MIDDLE	Correct	39.0	right_index_finger	red	horizontal	low	alarm	blue	vertical	high	alarm
192.32499999999987	9.42	delay	n/a	n/a	n/a	n/a	n/a	n/a	n/a	n/a	n/a	n/a	n/a	n/a	n/a	n/a	n/a	n/a
201.74499999999986	3.9250000000000003	encoding	n/a	Novel	NOT*BOTH	CONSTANT	LEFT*MIDDLE*	n/a	21.0	n/a	n/a	n/a	n/a	n/a	n/a	n/a	n/a	n/a
205.66999999999987	6.28	delay	n/a	n/a	n/a	n/a	n/a	n/a	n/a	n/a	n/a	n/a	n/a	n/a	n/a	n/a	n/a	n/a
211.94999999999987	2.355	trial	2032.0	Novel	NOT*BOTH	CONSTANT	LEFT*MIDDLE*	Wrong	21.0	left_index_finger	red	horizontal	high	alarm	red	vertical	low	constant
214.30499999999986	1.57	ITI	n/a	n/a	n/a	n/a	n/a	n/a	n/a	n/a	n/a	n/a	n/a	n/a	n/a	n/a	n/a	n/a
215.87499999999986	2.355	trial	2263.0	Novel	NOT*BOTH	CONSTANT	LEFT*MIDDLE*	Correct	21.0	left_index_finger	blue	horizontal	low	constant	blue	vertical	high	constant
218.22999999999985	1.57	ITI	n/a	n/a	n/a	n/a	n/a	n/a	n/a	n/a	n/a	n/a	n/a	n/a	n/a	n/a	n/a	n/a
219.79999999999984	2.355	trial	1733.0	Novel	NOT*BOTH	CONSTANT	LEFT*MIDDLE*	Correct	21.0	left_middle_finger	red	horizontal	low	alarm	red	horizontal	low	alarm
222.15499999999983	7.85	delay	n/a	n/a	n/a	n/a	n/a	n/a	n/a	n/a	n/a	n/a	n/a	n/a	n/a	n/a	n/a	n/a
230.00499999999982	3.9250000000000003	encoding	n/a	Novel	NEITHER*	**RED***	LEFT*MIDDLE*	n/a	57.0	n/a	n/a	n/a	n/a	n/a	n/a	n/a	n/a	n/a
233.92999999999984	2.355	delay	n/a	n/a	n/a	n/a	n/a	n/a	n/a	n/a	n/a	n/a	n/a	n/a	n/a	n/a	n/a	n/a
236.28499999999983	2.355	trial	1867.0	Novel	NEITHER*	**RED***	LEFT*MIDDLE*	Correct	57.0	left_index_finger	red	vertical	high	constant	blue	horizontal	low	constant
238.63999999999982	1.57	ITI	n/a	n/a	n/a	n/a	n/a	n/a	n/a	n/a	n/a	n/a	n/a	n/a	n/a	n/a	n/a	n/a
240.2099999999998	2.355	trial	1767.0	Novel	NEITHER*	**RED***	LEFT*MIDDLE*	Correct	57.0	left_index_finger	red	horizontal	low	constant	red	vertical	high	constant
242.5649999999998	1.57	ITI	n/a	n/a	n/a	n/a	n/a	n/a	n/a	n/a	n/a	n/a	n/a	n/a	n/a	n/a	n/a	n/a
244.1349999999998	2.355	trial	1616.0	Novel	NEITHER*	**RED***	LEFT*MIDDLE*	Correct	57.0	left_index_finger	red	horizontal	high	constant	red	horizontal	low	constant
246.48999999999978	11.775	delay	n/a	n/a	n/a	n/a	n/a	n/a	n/a	n/a	n/a	n/a	n/a	n/a	n/a	n/a	n/a	n/a
258.26499999999976	3.9250000000000003	encoding	n/a	Novel	NOT*BOTH	VERTICAL	LEFT*MIDDLE*	n/a	29.0	n/a	n/a	n/a	n/a	n/a	n/a	n/a	n/a	n/a
262.18999999999977	4.71	delay	n/a	n/a	n/a	n/a	n/a	n/a	n/a	n/a	n/a	n/a	n/a	n/a	n/a	n/a	n/a	n/a
266.89999999999975	2.355	trial	2023.0	Novel	NOT*BOTH	VERTICAL	LEFT*MIDDLE*	Correct	29.0	left_index_finger	red	vertical	high	constant	blue	vertical	high	constant
269.25499999999977	1.57	ITI	n/a	n/a	n/a	n/a	n/a	n/a	n/a	n/a	n/a	n/a	n/a	n/a	n/a	n/a	n/a	n/a
270.82499999999976	2.355	trial	1657.0	Novel	NOT*BOTH	VERTICAL	LEFT*MIDDLE*	Correct	29.0	left_middle_finger	red	horizontal	low	alarm	blue	horizontal	low	constant
273.1799999999998	1.57	ITI	n/a	n/a	n/a	n/a	n/a	n/a	n/a	n/a	n/a	n/a	n/a	n/a	n/a	n/a	n/a	n/a
274.7499999999998	2.355	trial	1858.0	Novel	NOT*BOTH	VERTICAL	LEFT*MIDDLE*	Correct	29.0	left_index_finger	blue	vertical	low	constant	blue	vertical	low	alarm
277.1049999999998	9.42	delay	n/a	n/a	n/a	n/a	n/a	n/a	n/a	n/a	n/a	n/a	n/a	n/a	n/a	n/a	n/a	n/a
286.5249999999998	3.9250000000000003	encoding	n/a	Novel	NOT*BOTH	CONSTANT	RIGHT*INDEX*	n/a	24.0	n/a	n/a	n/a	n/a	n/a	n/a	n/a	n/a	n/a
290.4499999999998	6.28	delay	n/a	n/a	n/a	n/a	n/a	n/a	n/a	n/a	n/a	n/a	n/a	n/a	n/a	n/a	n/a	n/a
296.7299999999998	2.355	trial	2515.0	Novel	NOT*BOTH	CONSTANT	RIGHT*INDEX*	Wrong	24.0	right_middle_finger	red	horizontal	low	alarm	blue	vertical	high	constant
299.0849999999998	1.57	ITI	n/a	n/a	n/a	n/a	n/a	n/a	n/a	n/a	n/a	n/a	n/a	n/a	n/a	n/a	n/a	n/a
300.6549999999998	2.355	trial	1622.0	Novel	NOT*BOTH	CONSTANT	RIGHT*INDEX*	Correct	24.0	right_middle_finger	blue	horizontal	low	constant	red	horizontal	high	constant
303.0099999999998	1.57	ITI	n/a	n/a	n/a	n/a	n/a	n/a	n/a	n/a	n/a	n/a	n/a	n/a	n/a	n/a	n/a	n/a
304.5799999999998	2.355	trial	1715.0	Novel	NOT*BOTH	CONSTANT	RIGHT*INDEX*	Correct	24.0	right_middle_finger	red	vertical	high	constant	blue	vertical	high	constant
306.93499999999983	7.85	delay	n/a	n/a	n/a	n/a	n/a	n/a	n/a	n/a	n/a	n/a	n/a	n/a	n/a	n/a	n/a	n/a
314.78499999999985	3.9250000000000003	encoding	n/a	Novel	NOT*BOTH	**RED***	LEFT*MIDDLE*	n/a	25.0	n/a	n/a	n/a	n/a	n/a	n/a	n/a	n/a	n/a
318.70999999999987	5.495	delay	n/a	n/a	n/a	n/a	n/a	n/a	n/a	n/a	n/a	n/a	n/a	n/a	n/a	n/a	n/a	n/a
324.20499999999987	2.355	trial	710.0	Novel	NOT*BOTH	**RED***	LEFT*MIDDLE*	Correct	25.0	left_index_finger	red	horizontal	high	constant	red	horizontal	high	alarm
326.5599999999999	1.57	ITI	n/a	n/a	n/a	n/a	n/a	n/a	n/a	n/a	n/a	n/a	n/a	n/a	n/a	n/a	n/a	n/a
328.1299999999999	2.355	trial	2174.0	Novel	NOT*BOTH	**RED***	LEFT*MIDDLE*	Correct	25.0	left_middle_finger	red	horizontal	high	alarm	blue	vertical	high	alarm
330.4849999999999	1.57	ITI	n/a	n/a	n/a	n/a	n/a	n/a	n/a	n/a	n/a	n/a	n/a	n/a	n/a	n/a	n/a	n/a
332.0549999999999	2.355	trial	2073.0	Novel	NOT*BOTH	**RED***	LEFT*MIDDLE*	Correct	25.0	left_index_finger	red	horizontal	low	constant	red	horizontal	high	constant
334.4099999999999	8.635	delay	n/a	n/a	n/a	n/a	n/a	n/a	n/a	n/a	n/a	n/a	n/a	n/a	n/a	n/a	n/a	n/a
343.0449999999999	3.9250000000000003	encoding	n/a	Novel	NOT*BOTH	**RED***	RIGHT*MIDDLE	n/a	27.0	n/a	n/a	n/a	n/a	n/a	n/a	n/a	n/a	n/a
346.9699999999999	5.495	delay	n/a	n/a	n/a	n/a	n/a	n/a	n/a	n/a	n/a	n/a	n/a	n/a	n/a	n/a	n/a	n/a
352.4649999999999	2.355	trial	2039.0	Novel	NOT*BOTH	**RED***	RIGHT*MIDDLE	Wrong	27.0	right_middle_finger	red	vertical	high	alarm	red	horizontal	high	alarm
354.81999999999994	1.57	ITI	n/a	n/a	n/a	n/a	n/a	n/a	n/a	n/a	n/a	n/a	n/a	n/a	n/a	n/a	n/a	n/a
356.38999999999993	2.355	trial	3006.0	Novel	NOT*BOTH	**RED***	RIGHT*MIDDLE	Correct	27.0	right_index_finger	red	horizontal	low	constant	red	horizontal	high	alarm
358.74499999999995	1.57	ITI	n/a	n/a	n/a	n/a	n/a	n/a	n/a	n/a	n/a	n/a	n/a	n/a	n/a	n/a	n/a	n/a
360.31499999999994	2.355	trial	1907.0	Novel	NOT*BOTH	**RED***	RIGHT*MIDDLE	Correct	27.0	right_index_finger	red	vertical	high	alarm	red	horizontal	high	alarm
362.66999999999996	8.635	delay	n/a	n/a	n/a	n/a	n/a	n/a	n/a	n/a	n/a	n/a	n/a	n/a	n/a	n/a	n/a	n/a
371.30499999999995	3.9250000000000003	encoding	n/a	Novel	**BOTH**	**RED***	*LEFT*INDEX*	n/a	10.0	n/a	n/a	n/a	n/a	n/a	n/a	n/a	n/a	n/a
375.22999999999996	5.495	delay	n/a	n/a	n/a	n/a	n/a	n/a	n/a	n/a	n/a	n/a	n/a	n/a	n/a	n/a	n/a	n/a
380.72499999999997	2.355	trial	2035.0	Novel	**BOTH**	**RED***	*LEFT*INDEX*	Correct	10.0	left_middle_finger	blue	horizontal	high	alarm	blue	vertical	low	alarm
383.08	1.57	ITI	n/a	n/a	n/a	n/a	n/a	n/a	n/a	n/a	n/a	n/a	n/a	n/a	n/a	n/a	n/a	n/a
384.65	2.355	trial	2436.0	Novel	**BOTH**	**RED***	*LEFT*INDEX*	Wrong	10.0	left_index_finger	blue	horizontal	low	constant	red	vertical	high	constant
387.005	1.57	ITI	n/a	n/a	n/a	n/a	n/a	n/a	n/a	n/a	n/a	n/a	n/a	n/a	n/a	n/a	n/a	n/a
388.575	2.355	trial	1699.0	Novel	**BOTH**	**RED***	*LEFT*INDEX*	Correct	10.0	left_index_finger	red	vertical	high	alarm	red	horizontal	high	constant
390.93	8.635	delay	n/a	n/a	n/a	n/a	n/a	n/a	n/a	n/a	n/a	n/a	n/a	n/a	n/a	n/a	n/a	n/a
399.565	3.9250000000000003	encoding	n/a	Novel	*EITHER*	CONSTANT	LEFT*MIDDLE*	n/a	37.0	n/a	n/a	n/a	n/a	n/a	n/a	n/a	n/a	n/a
403.49	2.355	delay	n/a	n/a	n/a	n/a	n/a	n/a	n/a	n/a	n/a	n/a	n/a	n/a	n/a	n/a	n/a	n/a
405.845	2.355	trial	1907.0	Novel	*EITHER*	CONSTANT	LEFT*MIDDLE*	Correct	37.0	left_index_finger	blue	horizontal	high	alarm	blue	horizontal	high	alarm
408.20000000000005	1.57	ITI	n/a	n/a	n/a	n/a	n/a	n/a	n/a	n/a	n/a	n/a	n/a	n/a	n/a	n/a	n/a	n/a
409.77000000000004	2.355	trial	1999.0	Novel	*EITHER*	CONSTANT	LEFT*MIDDLE*	Correct	37.0	left_index_finger	blue	vertical	low	alarm	blue	horizontal	low	alarm
412.12500000000006	1.57	ITI	n/a	n/a	n/a	n/a	n/a	n/a	n/a	n/a	n/a	n/a	n/a	n/a	n/a	n/a	n/a	n/a
413.69500000000005	2.355	trial	1032.0	Novel	*EITHER*	CONSTANT	LEFT*MIDDLE*	Correct	37.0	left_middle_finger	blue	vertical	high	constant	blue	vertical	high	constant
416.05000000000007	11.775	delay	n/a	n/a	n/a	n/a	n/a	n/a	n/a	n/a	n/a	n/a	n/a	n/a	n/a	n/a	n/a	n/a
427.82500000000005	3.9250000000000003	encoding	n/a	Prac	**BOTH**	VERTICAL	RIGHT*INDEX*	n/a	16.0	n/a	n/a	n/a	n/a	n/a	n/a	n/a	n/a	n/a
431.75000000000006	4.71	delay	n/a	n/a	n/a	n/a	n/a	n/a	n/a	n/a	n/a	n/a	n/a	n/a	n/a	n/a	n/a	n/a
436.46000000000004	2.355	trial	1925.0	Prac	**BOTH**	VERTICAL	RIGHT*INDEX*	Correct	16.0	right_middle_finger	blue	vertical	high	alarm	red	horizontal	low	alarm
438.81500000000005	1.57	ITI	n/a	n/a	n/a	n/a	n/a	n/a	n/a	n/a	n/a	n/a	n/a	n/a	n/a	n/a	n/a	n/a
440.38500000000005	2.355	trial	1763.0	Prac	**BOTH**	VERTICAL	RIGHT*INDEX*	Correct	16.0	right_middle_finger	red	vertical	high	alarm	red	horizontal	high	alarm
442.74000000000007	1.57	ITI	n/a	n/a	n/a	n/a	n/a	n/a	n/a	n/a	n/a	n/a	n/a	n/a	n/a	n/a	n/a	n/a
444.31000000000006	2.355	trial	1801.0	Prac	**BOTH**	VERTICAL	RIGHT*INDEX*	Correct	16.0	right_index_finger	blue	vertical	low	constant	blue	vertical	high	constant
446.6650000000001	9.42	delay	n/a	n/a	n/a	n/a	n/a	n/a	n/a	n/a	n/a	n/a	n/a	n/a	n/a	n/a	n/a	n/a
