onset	duration	task_event	rt_in_ms	task_novelty	logic_rule	sensory_rule	motor_rule	performance	task_id	motor_response	stimulus1_color	stimulus1_orientation	stimulus1_pitch	stimulus1_continuity	stimulus2_color	stimulus2_orientation	stimulus2_pitch	stimulus2_continuity
0.0	3.9250000000000003	delay	n/a	n/a	n/a	n/a	n/a	n/a	n/a	n/a	n/a	n/a	n/a	n/a	n/a	n/a	n/a	n/a
3.9250000000000003	3.9250000000000003	encoding	n/a	Novel	*EITHER*	VERTICAL	RIGHT*INDEX*	n/a	48.0	n/a	n/a	n/a	n/a	n/a	n/a	n/a	n/a	n/a
7.8500000000000005	3.14	delay	n/a	n/a	n/a	n/a	n/a	n/a	n/a	n/a	n/a	n/a	n/a	n/a	n/a	n/a	n/a	n/a
10.99	2.355	trial	1822.0	Novel	*EITHER*	VERTICAL	RIGHT*INDEX*	Correct	48.0	right_middle_finger	blue	horizontal	high	alarm	blue	horizontal	high	alarm
13.345	1.57	ITI	n/a	n/a	n/a	n/a	n/a	n/a	n/a	n/a	n/a	n/a	n/a	n/a	n/a	n/a	n/a	n/a
14.915000000000001	2.355	trial	1724.0	Novel	*EITHER*	VERTICAL	RIGHT*INDEX*	Correct	48.0	right_middle_finger	red	horizontal	high	alarm	blue	horizontal	high	alarm
17.27	1.57	ITI	n/a	n/a	n/a	n/a	n/a	n/a	n/a	n/a	n/a	n/a	n/a	n/a	n/a	n/a	n/a	n/a
18.84	2.355	trial	1760.0	Novel	*EITHER*	VERTICAL	RIGHT*INDEX*	Correct	48.0	right_middle_finger	blue	horizontal	high	alarm	blue	horizontal	high	alarm
21.195	10.99	delay	n/a	n/a	n/a	n/a	n/a	n/a	n/a	n/a	n/a	n/a	n/a	n/a	n/a	n/a	n/a	n/a
32.185	3.9250000000000003	encoding	n/a	Novel	**BOTH**	VERTICAL	LEFT*MIDDLE*	n/a	13.0	n/a	n/a	n/a	n/a	n/a	n/a	n/a	n/a	n/a
36.11	3.14	delay	n/a	n/a	n/a	n/a	n/a	n/a	n/a	n/a	n/a	n/a	n/a	n/a	n/a	n/a	n/a	n/a
39.25	2.355	trial	1785.0	Novel	**BOTH**	VERTICAL	LEFT*MIDDLE*	Correct	13.0	left_index_finger	blue	horizontal	low	constant	blue	horizontal	low	alarm
41.605	1.57	ITI	n/a	n/a	n/a	n/a	n/a	n/a	n/a	n/a	n/a	n/a	n/a	n/a	n/a	n/a	n/a	n/a
43.175	2.355	trial	1676.0	Novel	**BOTH**	VERTICAL	LEFT*MIDDLE*	Correct	13.0	left_middle_finger	blue	vertical	high	constant	blue	vertical	low	alarm
45.529999999999994	1.57	ITI	n/a	n/a	n/a	n/a	n/a	n/a	n/a	n/a	n/a	n/a	n/a	n/a	n/a	n/a	n/a	n/a
47.099999999999994	2.355	trial	1742.0	Novel	**BOTH**	VERTICAL	LEFT*MIDDLE*	Correct	13.0	left_middle_finger	red	vertical	low	constant	red	vertical	low	constant
49.45499999999999	10.99	delay	n/a	n/a	n/a	n/a	n/a	n/a	n/a	n/a	n/a	n/a	n/a	n/a	n/a	n/a	n/a	n/a
60.44499999999999	3.9250000000000003	encoding	n/a	Novel	*EITHER*	**RED***	RIGHT*MIDDLE	n/a	43.0	n/a	n/a	n/a	n/a	n/a	n/a	n/a	n/a	n/a
64.36999999999999	3.925	delay	n/a	n/a	n/a	n/a	n/a	n/a	n/a	n/a	n/a	n/a	n/a	n/a	n/a	n/a	n/a	n/a
68.29499999999999	2.355	trial	1933.0	Novel	*EITHER*	**RED***	RIGHT*MIDDLE	Correct	43.0	right_index_finger	blue	horizontal	low	constant	blue	vertical	low	constant
70.64999999999999	1.57	ITI	n/a	n/a	n/a	n/a	n/a	n/a	n/a	n/a	n/a	n/a	n/a	n/a	n/a	n/a	n/a	n/a
72.21999999999998	2.355	trial	1572.0	Novel	*EITHER*	**RED***	RIGHT*MIDDLE	Correct	43.0	right_middle_finger	red	vertical	high	constant	blue	vertical	low	alarm
74.57499999999999	1.57	ITI	n/a	n/a	n/a	n/a	n/a	n/a	n/a	n/a	n/a	n/a	n/a	n/a	n/a	n/a	n/a	n/a
76.14499999999998	2.355	trial	1735.0	Novel	*EITHER*	**RED***	RIGHT*MIDDLE	Correct	43.0	right_middle_finger	blue	vertical	low	constant	red	vertical	low	alarm
78.49999999999999	10.205	delay	n/a	n/a	n/a	n/a	n/a	n/a	n/a	n/a	n/a	n/a	n/a	n/a	n/a	n/a	n/a	n/a
88.70499999999998	3.9250000000000003	encoding	n/a	Novel	*EITHER*	HI*PITCH	*LEFT*INDEX*	n/a	34.0	n/a	n/a	n/a	n/a	n/a	n/a	n/a	n/a	n/a
92.62999999999998	3.14	delay	n/a	n/a	n/a	n/a	n/a	n/a	n/a	n/a	n/a	n/a	n/a	n/a	n/a	n/a	n/a	n/a
95.76999999999998	2.355	trial	1828.0	Novel	*EITHER*	HI*PITCH	*LEFT*INDEX*	Correct	34.0	left_middle_finger	blue	horizontal	low	constant	blue	horizontal	low	alarm
98.12499999999999	1.57	ITI	n/a	n/a	n/a	n/a	n/a	n/a	n/a	n/a	n/a	n/a	n/a	n/a	n/a	n/a	n/a	n/a
99.69499999999998	2.355	trial	1636.0	Novel	*EITHER*	HI*PITCH	*LEFT*INDEX*	Correct	34.0	left_index_finger	blue	vertical	high	alarm	red	horizontal	low	alarm
102.04999999999998	1.57	ITI	n/a	n/a	n/a	n/a	n/a	n/a	n/a	n/a	n/a	n/a	n/a	n/a	n/a	n/a	n/a	n/a
103.61999999999998	2.355	trial	1996.0	Novel	*EITHER*	HI*PITCH	*LEFT*INDEX*	Correct	34.0	left_middle_finger	red	vertical	low	alarm	blue	vertical	low	constant
105.97499999999998	10.99	delay	n/a	n/a	n/a	n/a	n/a	n/a	n/a	n/a	n/a	n/a	n/a	n/a	n/a	n/a	n/a	n/a
116.96499999999997	3.9250000000000003	encoding	n/a	Novel	*EITHER*	HI*PITCH	RIGHT*INDEX*	n/a	36.0	n/a	n/a	n/a	n/a	n/a	n/a	n/a	n/a	n/a
120.88999999999997	2.355	delay	n/a	n/a	n/a	n/a	n/a	n/a	n/a	n/a	n/a	n/a	n/a	n/a	n/a	n/a	n/a	n/a
123.24499999999998	2.355	trial	1764.0	Novel	*EITHER*	HI*PITCH	RIGHT*INDEX*	Correct	36.0	right_index_finger	blue	horizontal	low	alarm	red	vertical	high	constant
125.59999999999998	1.57	ITI	n/a	n/a	n/a	n/a	n/a	n/a	n/a	n/a	n/a	n/a	n/a	n/a	n/a	n/a	n/a	n/a
127.16999999999997	2.355	trial	1840.0	Novel	*EITHER*	HI*PITCH	RIGHT*INDEX*	Correct	36.0	right_middle_finger	red	horizontal	low	alarm	red	horizontal	low	alarm
129.52499999999998	1.57	ITI	n/a	n/a	n/a	n/a	n/a	n/a	n/a	n/a	n/a	n/a	n/a	n/a	n/a	n/a	n/a	n/a
131.09499999999997	2.355	trial	1731.0	Novel	*EITHER*	HI*PITCH	RIGHT*INDEX*	Correct	36.0	right_index_finger	red	vertical	low	alarm	red	horizontal	high	constant
133.44999999999996	11.775	delay	n/a	n/a	n/a	n/a	n/a	n/a	n/a	n/a	n/a	n/a	n/a	n/a	n/a	n/a	n/a	n/a
145.22499999999997	3.9250000000000003	encoding	n/a	Prac	NEITHER*	**RED***	RIGHT*MIDDLE	n/a	59.0	n/a	n/a	n/a	n/a	n/a	n/a	n/a	n/a	n/a
149.14999999999998	4.71	delay	n/a	n/a	n/a	n/a	n/a	n/a	n/a	n/a	n/a	n/a	n/a	n/a	n/a	n/a	n/a	n/a
153.85999999999999	2.355	trial	1750.0	Prac	NEITHER*	**RED***	RIGHT*MIDDLE	Correct	59.0	right_index_finger	red	vertical	high	constant	red	vertical	low	alarm
156.21499999999997	1.57	ITI	n/a	n/a	n/a	n/a	n/a	n/a	n/a	n/a	n/a	n/a	n/a	n/a	n/a	n/a	n/a	n/a
157.78499999999997	2.355	trial	1878.0	Prac	NEITHER*	**RED***	RIGHT*MIDDLE	Correct	59.0	right_index_finger	blue	horizontal	high	alarm	red	vertical	high	alarm
160.13999999999996	1.57	ITI	n/a	n/a	n/a	n/a	n/a	n/a	n/a	n/a	n/a	n/a	n/a	n/a	n/a	n/a	n/a	n/a
161.70999999999995	2.355	trial	1674.0	Prac	NEITHER*	**RED***	RIGHT*MIDDLE	Correct	59.0	right_middle_finger	blue	horizontal	high	alarm	blue	horizontal	high	constant
164.06499999999994	9.42	delay	n/a	n/a	n/a	n/a	n/a	n/a	n/a	n/a	n/a	n/a	n/a	n/a	n/a	n/a	n/a	n/a
173.48499999999993	3.9250000000000003	encoding	n/a	Novel	*EITHER*	VERTICAL	LEFT*MIDDLE*	n/a	45.0	n/a	n/a	n/a	n/a	n/a	n/a	n/a	n/a	n/a
177.40999999999994	1.57	delay	n/a	n/a	n/a	n/a	n/a	n/a	n/a	n/a	n/a	n/a	n/a	n/a	n/a	n/a	n/a	n/a
178.97999999999993	2.355	trial	2384.0	Novel	*EITHER*	VERTICAL	LEFT*MIDDLE*	Correct	45.0	left_index_finger	blue	horizontal	high	alarm	red	horizontal	low	constant
181.33499999999992	1.57	ITI	n/a	n/a	n/a	n/a	n/a	n/a	n/a	n/a	n/a	n/a	n/a	n/a	n/a	n/a	n/a	n/a
182.90499999999992	2.355	trial	1945.0	Novel	*EITHER*	VERTICAL	LEFT*MIDDLE*	Correct	45.0	left_index_finger	blue	horizontal	low	alarm	red	horizontal	low	alarm
185.2599999999999	1.57	ITI	n/a	n/a	n/a	n/a	n/a	n/a	n/a	n/a	n/a	n/a	n/a	n/a	n/a	n/a	n/a	n/a
186.8299999999999	2.355	trial	1616.0	Novel	*EITHER*	VERTICAL	LEFT*MIDDLE*	Correct	45.0	left_middle_finger	blue	vertical	high	constant	blue	vertical	low	alarm
189.1849999999999	12.56	delay	n/a	n/a	n/a	n/a	n/a	n/a	n/a	n/a	n/a	n/a	n/a	n/a	n/a	n/a	n/a	n/a
201.7449999999999	3.9250000000000003	encoding	n/a	Novel	*EITHER*	HI*PITCH	RIGHT*MIDDLE	n/a	35.0	n/a	n/a	n/a	n/a	n/a	n/a	n/a	n/a	n/a
205.6699999999999	4.71	delay	n/a	n/a	n/a	n/a	n/a	n/a	n/a	n/a	n/a	n/a	n/a	n/a	n/a	n/a	n/a	n/a
210.3799999999999	2.355	trial	2055.0	Novel	*EITHER*	HI*PITCH	RIGHT*MIDDLE	Correct	35.0	right_index_finger	blue	horizontal	low	constant	blue	horizontal	low	constant
212.7349999999999	1.57	ITI	n/a	n/a	n/a	n/a	n/a	n/a	n/a	n/a	n/a	n/a	n/a	n/a	n/a	n/a	n/a	n/a
214.3049999999999	2.355	trial	2216.0	Novel	*EITHER*	HI*PITCH	RIGHT*MIDDLE	Correct	35.0	right_index_finger	blue	vertical	low	alarm	red	vertical	low	alarm
216.65999999999988	1.57	ITI	n/a	n/a	n/a	n/a	n/a	n/a	n/a	n/a	n/a	n/a	n/a	n/a	n/a	n/a	n/a	n/a
218.22999999999988	2.355	trial	1536.0	Novel	*EITHER*	HI*PITCH	RIGHT*MIDDLE	Correct	35.0	right_middle_finger	blue	vertical	high	alarm	red	horizontal	high	constant
220.58499999999987	9.42	delay	n/a	n/a	n/a	n/a	n/a	n/a	n/a	n/a	n/a	n/a	n/a	n/a	n/a	n/a	n/a	n/a
230.00499999999985	3.9250000000000003	encoding	n/a	Novel	NEITHER*	CONSTANT	RIGHT*MIDDLE	n/a	55.0	n/a	n/a	n/a	n/a	n/a	n/a	n/a	n/a	n/a
233.92999999999986	1.57	delay	n/a	n/a	n/a	n/a	n/a	n/a	n/a	n/a	n/a	n/a	n/a	n/a	n/a	n/a	n/a	n/a
235.49999999999986	2.355	trial	1880.0	Novel	NEITHER*	CONSTANT	RIGHT*MIDDLE	Correct	55.0	right_middle_finger	red	horizontal	low	alarm	blue	horizontal	low	alarm
237.85499999999985	1.57	ITI	n/a	n/a	n/a	n/a	n/a	n/a	n/a	n/a	n/a	n/a	n/a	n/a	n/a	n/a	n/a	n/a
239.42499999999984	2.355	trial	1838.0	Novel	NEITHER*	CONSTANT	RIGHT*MIDDLE	Correct	55.0	right_middle_finger	blue	vertical	low	alarm	red	horizontal	low	alarm
241.77999999999983	1.57	ITI	n/a	n/a	n/a	n/a	n/a	n/a	n/a	n/a	n/a	n/a	n/a	n/a	n/a	n/a	n/a	n/a
243.34999999999982	2.355	trial	1966.0	Novel	NEITHER*	CONSTANT	RIGHT*MIDDLE	Correct	55.0	right_middle_finger	red	horizontal	low	alarm	red	horizontal	low	alarm
245.7049999999998	12.56	delay	n/a	n/a	n/a	n/a	n/a	n/a	n/a	n/a	n/a	n/a	n/a	n/a	n/a	n/a	n/a	n/a
258.2649999999998	3.9250000000000003	encoding	n/a	Novel	NOT*BOTH	VERTICAL	*LEFT*INDEX*	n/a	30.0	n/a	n/a	n/a	n/a	n/a	n/a	n/a	n/a	n/a
262.1899999999998	3.925	delay	n/a	n/a	n/a	n/a	n/a	n/a	n/a	n/a	n/a	n/a	n/a	n/a	n/a	n/a	n/a	n/a
266.11499999999984	2.355	trial	1723.0	Novel	NOT*BOTH	VERTICAL	*LEFT*INDEX*	Wrong	30.0	left_index_finger	red	vertical	high	alarm	blue	vertical	low	alarm
268.46999999999986	1.57	ITI	n/a	n/a	n/a	n/a	n/a	n/a	n/a	n/a	n/a	n/a	n/a	n/a	n/a	n/a	n/a	n/a
270.03999999999985	2.355	trial	1918.0	Novel	NOT*BOTH	VERTICAL	*LEFT*INDEX*	Wrong	30.0	left_middle_finger	red	horizontal	low	constant	red	vertical	low	alarm
272.39499999999987	1.57	ITI	n/a	n/a	n/a	n/a	n/a	n/a	n/a	n/a	n/a	n/a	n/a	n/a	n/a	n/a	n/a	n/a
273.96499999999986	2.355	trial	0.0	Novel	NOT*BOTH	VERTICAL	*LEFT*INDEX*	No Response	30.0	no_response	blue	horizontal	low	alarm	red	vertical	low	alarm
276.3199999999999	10.205	delay	n/a	n/a	n/a	n/a	n/a	n/a	n/a	n/a	n/a	n/a	n/a	n/a	n/a	n/a	n/a	n/a
286.52499999999986	3.9250000000000003	encoding	n/a	Novel	*EITHER*	VERTICAL	RIGHT*MIDDLE	n/a	47.0	n/a	n/a	n/a	n/a	n/a	n/a	n/a	n/a	n/a
290.4499999999999	2.355	delay	n/a	n/a	n/a	n/a	n/a	n/a	n/a	n/a	n/a	n/a	n/a	n/a	n/a	n/a	n/a	n/a
292.8049999999999	2.355	trial	1896.0	Novel	*EITHER*	VERTICAL	RIGHT*MIDDLE	Correct	47.0	right_middle_finger	blue	vertical	high	alarm	red	horizontal	low	alarm
295.1599999999999	1.57	ITI	n/a	n/a	n/a	n/a	n/a	n/a	n/a	n/a	n/a	n/a	n/a	n/a	n/a	n/a	n/a	n/a
296.7299999999999	2.355	trial	1596.0	Novel	*EITHER*	VERTICAL	RIGHT*MIDDLE	Correct	47.0	right_middle_finger	red	vertical	low	constant	blue	vertical	high	alarm
299.0849999999999	1.57	ITI	n/a	n/a	n/a	n/a	n/a	n/a	n/a	n/a	n/a	n/a	n/a	n/a	n/a	n/a	n/a	n/a
300.6549999999999	2.355	trial	1926.0	Novel	*EITHER*	VERTICAL	RIGHT*MIDDLE	Correct	47.0	right_middle_finger	red	horizontal	low	constant	red	vertical	low	constant
303.00999999999993	11.775	delay	n/a	n/a	n/a	n/a	n/a	n/a	n/a	n/a	n/a	n/a	n/a	n/a	n/a	n/a	n/a	n/a
314.7849999999999	3.9250000000000003	encoding	n/a	Novel	NOT*BOTH	VERTICAL	RIGHT*INDEX*	n/a	32.0	n/a	n/a	n/a	n/a	n/a	n/a	n/a	n/a	n/a
318.7099999999999	5.495	delay	n/a	n/a	n/a	n/a	n/a	n/a	n/a	n/a	n/a	n/a	n/a	n/a	n/a	n/a	n/a	n/a
324.2049999999999	2.355	trial	1760.0	Novel	NOT*BOTH	VERTICAL	RIGHT*INDEX*	Correct	32.0	right_index_finger	blue	horizontal	low	constant	red	horizontal	low	constant
326.55999999999995	1.57	ITI	n/a	n/a	n/a	n/a	n/a	n/a	n/a	n/a	n/a	n/a	n/a	n/a	n/a	n/a	n/a	n/a
328.12999999999994	2.355	trial	1666.0	Novel	NOT*BOTH	VERTICAL	RIGHT*INDEX*	Correct	32.0	right_index_finger	red	horizontal	high	constant	red	horizontal	low	constant
330.48499999999996	1.57	ITI	n/a	n/a	n/a	n/a	n/a	n/a	n/a	n/a	n/a	n/a	n/a	n/a	n/a	n/a	n/a	n/a
332.05499999999995	2.355	trial	1675.0	Novel	NOT*BOTH	VERTICAL	RIGHT*INDEX*	Correct	32.0	right_middle_finger	blue	vertical	low	alarm	blue	vertical	high	alarm
334.40999999999997	8.635	delay	n/a	n/a	n/a	n/a	n/a	n/a	n/a	n/a	n/a	n/a	n/a	n/a	n/a	n/a	n/a	n/a
343.04499999999996	3.9250000000000003	encoding	n/a	Novel	**BOTH**	HI*PITCH	RIGHT*INDEX*	n/a	4.0	n/a	n/a	n/a	n/a	n/a	n/a	n/a	n/a	n/a
346.96999999999997	3.14	delay	n/a	n/a	n/a	n/a	n/a	n/a	n/a	n/a	n/a	n/a	n/a	n/a	n/a	n/a	n/a	n/a
350.10999999999996	2.355	trial	1893.0	Novel	**BOTH**	HI*PITCH	RIGHT*INDEX*	Correct	4.0	right_index_finger	red	vertical	high	constant	red	vertical	high	constant
352.465	1.57	ITI	n/a	n/a	n/a	n/a	n/a	n/a	n/a	n/a	n/a	n/a	n/a	n/a	n/a	n/a	n/a	n/a
354.03499999999997	2.355	trial	2297.0	Novel	**BOTH**	HI*PITCH	RIGHT*INDEX*	Correct	4.0	right_index_finger	blue	vertical	high	constant	red	horizontal	high	alarm
356.39	1.57	ITI	n/a	n/a	n/a	n/a	n/a	n/a	n/a	n/a	n/a	n/a	n/a	n/a	n/a	n/a	n/a	n/a
357.96	2.355	trial	1660.0	Novel	**BOTH**	HI*PITCH	RIGHT*INDEX*	Correct	4.0	right_middle_finger	blue	horizontal	low	constant	red	vertical	low	constant
360.315	10.99	delay	n/a	n/a	n/a	n/a	n/a	n/a	n/a	n/a	n/a	n/a	n/a	n/a	n/a	n/a	n/a	n/a
371.305	3.9250000000000003	encoding	n/a	Novel	**BOTH**	HI*PITCH	*LEFT*INDEX*	n/a	2.0	n/a	n/a	n/a	n/a	n/a	n/a	n/a	n/a	n/a
375.23	3.14	delay	n/a	n/a	n/a	n/a	n/a	n/a	n/a	n/a	n/a	n/a	n/a	n/a	n/a	n/a	n/a	n/a
378.37	2.355	trial	1984.0	Novel	**BOTH**	HI*PITCH	*LEFT*INDEX*	Correct	2.0	left_index_finger	blue	vertical	high	constant	red	vertical	high	alarm
380.725	1.57	ITI	n/a	n/a	n/a	n/a	n/a	n/a	n/a	n/a	n/a	n/a	n/a	n/a	n/a	n/a	n/a	n/a
382.295	2.355	trial	1842.0	Novel	**BOTH**	HI*PITCH	*LEFT*INDEX*	Correct	2.0	left_index_finger	red	vertical	high	constant	red	horizontal	high	alarm
384.65000000000003	1.57	ITI	n/a	n/a	n/a	n/a	n/a	n/a	n/a	n/a	n/a	n/a	n/a	n/a	n/a	n/a	n/a	n/a
386.22	2.355	trial	1869.0	Novel	**BOTH**	HI*PITCH	*LEFT*INDEX*	Correct	2.0	left_middle_finger	red	horizontal	high	constant	blue	vertical	low	constant
388.57500000000005	10.99	delay	n/a	n/a	n/a	n/a	n/a	n/a	n/a	n/a	n/a	n/a	n/a	n/a	n/a	n/a	n/a	n/a
399.56500000000005	3.9250000000000003	encoding	n/a	Prac	NOT*BOTH	HI*PITCH	LEFT*MIDDLE*	n/a	17.0	n/a	n/a	n/a	n/a	n/a	n/a	n/a	n/a	n/a
403.49000000000007	3.925	delay	n/a	n/a	n/a	n/a	n/a	n/a	n/a	n/a	n/a	n/a	n/a	n/a	n/a	n/a	n/a	n/a
407.4150000000001	2.355	trial	1697.0	Prac	NOT*BOTH	HI*PITCH	LEFT*MIDDLE*	Correct	17.0	left_index_finger	red	horizontal	high	constant	red	vertical	high	alarm
409.7700000000001	1.57	ITI	n/a	n/a	n/a	n/a	n/a	n/a	n/a	n/a	n/a	n/a	n/a	n/a	n/a	n/a	n/a	n/a
411.3400000000001	2.355	trial	1542.0	Prac	NOT*BOTH	HI*PITCH	LEFT*MIDDLE*	Wrong	17.0	left_index_finger	red	horizontal	high	alarm	red	vertical	low	constant
413.6950000000001	1.57	ITI	n/a	n/a	n/a	n/a	n/a	n/a	n/a	n/a	n/a	n/a	n/a	n/a	n/a	n/a	n/a	n/a
415.2650000000001	2.355	trial	1845.0	Prac	NOT*BOTH	HI*PITCH	LEFT*MIDDLE*	Correct	17.0	left_index_finger	red	vertical	high	constant	blue	horizontal	high	constant
417.6200000000001	10.205	delay	n/a	n/a	n/a	n/a	n/a	n/a	n/a	n/a	n/a	n/a	n/a	n/a	n/a	n/a	n/a	n/a
427.8250000000001	3.9250000000000003	encoding	n/a	Novel	**BOTH**	HI*PITCH	LEFT*MIDDLE*	n/a	1.0	n/a	n/a	n/a	n/a	n/a	n/a	n/a	n/a	n/a
431.7500000000001	2.355	delay	n/a	n/a	n/a	n/a	n/a	n/a	n/a	n/a	n/a	n/a	n/a	n/a	n/a	n/a	n/a	n/a
434.10500000000013	2.355	trial	1795.0	Novel	**BOTH**	HI*PITCH	LEFT*MIDDLE*	Correct	1.0	left_index_finger	blue	vertical	low	alarm	red	horizontal	low	constant
436.46000000000015	1.57	ITI	n/a	n/a	n/a	n/a	n/a	n/a	n/a	n/a	n/a	n/a	n/a	n/a	n/a	n/a	n/a	n/a
438.03000000000014	2.355	trial	1908.0	Novel	**BOTH**	HI*PITCH	LEFT*MIDDLE*	Correct	1.0	left_index_finger	blue	vertical	low	alarm	red	horizontal	low	alarm
440.38500000000016	1.57	ITI	n/a	n/a	n/a	n/a	n/a	n/a	n/a	n/a	n/a	n/a	n/a	n/a	n/a	n/a	n/a	n/a
441.95500000000015	2.355	trial	1855.0	Novel	**BOTH**	HI*PITCH	LEFT*MIDDLE*	Correct	1.0	left_index_finger	blue	vertical	low	alarm	blue	vertical	high	alarm
444.3100000000002	11.775	delay	n/a	n/a	n/a	n/a	n/a	n/a	n/a	n/a	n/a	n/a	n/a	n/a	n/a	n/a	n/a	n/a
