onset	duration	task_event	rt_in_ms	task_novelty	logic_rule	sensory_rule	motor_rule	performance	task_id	motor_response	stimulus1_color	stimulus1_orientation	stimulus1_pitch	stimulus1_continuity	stimulus2_color	stimulus2_orientation	stimulus2_pitch	stimulus2_continuity
0.0	3.9250000000000003	delay	n/a	n/a	n/a	n/a	n/a	n/a	n/a	n/a	n/a	n/a	n/a	n/a	n/a	n/a	n/a	n/a
3.9250000000000003	3.9250000000000003	encoding	n/a	Novel	**BOTH**	HI*PITCH	LEFT*MIDDLE*	n/a	1.0	n/a	n/a	n/a	n/a	n/a	n/a	n/a	n/a	n/a
7.8500000000000005	4.71	delay	n/a	n/a	n/a	n/a	n/a	n/a	n/a	n/a	n/a	n/a	n/a	n/a	n/a	n/a	n/a	n/a
12.56	2.355	trial	2059.0	Novel	**BOTH**	HI*PITCH	LEFT*MIDDLE*	Correct	1.0	left_middle_finger	blue	horizontal	high	alarm	red	horizontal	high	constant
14.915000000000001	1.57	ITI	n/a	n/a	n/a	n/a	n/a	n/a	n/a	n/a	n/a	n/a	n/a	n/a	n/a	n/a	n/a	n/a
16.485	2.355	trial	1671.0	Novel	**BOTH**	HI*PITCH	LEFT*MIDDLE*	Correct	1.0	left_middle_finger	blue	vertical	high	constant	red	vertical	high	constant
18.84	1.57	ITI	n/a	n/a	n/a	n/a	n/a	n/a	n/a	n/a	n/a	n/a	n/a	n/a	n/a	n/a	n/a	n/a
20.41	2.355	trial	1751.0	Novel	**BOTH**	HI*PITCH	LEFT*MIDDLE*	Correct	1.0	left_middle_finger	blue	vertical	high	constant	blue	vertical	high	alarm
22.765	9.42	delay	n/a	n/a	n/a	n/a	n/a	n/a	n/a	n/a	n/a	n/a	n/a	n/a	n/a	n/a	n/a	n/a
32.185	3.9250000000000003	encoding	n/a	Novel	NOT*BOTH	CONSTANT	RIGHT*MIDDLE	n/a	23.0	n/a	n/a	n/a	n/a	n/a	n/a	n/a	n/a	n/a
36.11	6.28	delay	n/a	n/a	n/a	n/a	n/a	n/a	n/a	n/a	n/a	n/a	n/a	n/a	n/a	n/a	n/a	n/a
42.39	2.355	trial	2016.0	Novel	NOT*BOTH	CONSTANT	RIGHT*MIDDLE	Correct	23.0	right_index_finger	red	horizontal	low	constant	blue	vertical	high	constant
44.745	1.57	ITI	n/a	n/a	n/a	n/a	n/a	n/a	n/a	n/a	n/a	n/a	n/a	n/a	n/a	n/a	n/a	n/a
46.315	2.355	trial	1821.0	Novel	NOT*BOTH	CONSTANT	RIGHT*MIDDLE	Correct	23.0	right_middle_finger	blue	vertical	high	constant	blue	horizontal	low	alarm
48.669999999999995	1.57	ITI	n/a	n/a	n/a	n/a	n/a	n/a	n/a	n/a	n/a	n/a	n/a	n/a	n/a	n/a	n/a	n/a
50.239999999999995	2.355	trial	1764.0	Novel	NOT*BOTH	CONSTANT	RIGHT*MIDDLE	Correct	23.0	right_middle_finger	red	horizontal	low	constant	red	horizontal	low	alarm
52.59499999999999	7.85	delay	n/a	n/a	n/a	n/a	n/a	n/a	n/a	n/a	n/a	n/a	n/a	n/a	n/a	n/a	n/a	n/a
60.44499999999999	3.9250000000000003	encoding	n/a	Novel	**BOTH**	**RED***	RIGHT*INDEX*	n/a	12.0	n/a	n/a	n/a	n/a	n/a	n/a	n/a	n/a	n/a
64.36999999999999	3.14	delay	n/a	n/a	n/a	n/a	n/a	n/a	n/a	n/a	n/a	n/a	n/a	n/a	n/a	n/a	n/a	n/a
67.50999999999999	2.355	trial	1753.0	Novel	**BOTH**	**RED***	RIGHT*INDEX*	Correct	12.0	right_index_finger	red	horizontal	high	alarm	red	horizontal	low	alarm
69.865	1.57	ITI	n/a	n/a	n/a	n/a	n/a	n/a	n/a	n/a	n/a	n/a	n/a	n/a	n/a	n/a	n/a	n/a
71.43499999999999	2.355	trial	1209.0	Novel	**BOTH**	**RED***	RIGHT*INDEX*	Correct	12.0	right_middle_finger	blue	vertical	high	constant	red	vertical	low	constant
73.78999999999999	1.57	ITI	n/a	n/a	n/a	n/a	n/a	n/a	n/a	n/a	n/a	n/a	n/a	n/a	n/a	n/a	n/a	n/a
75.35999999999999	2.355	trial	1696.0	Novel	**BOTH**	**RED***	RIGHT*INDEX*	Correct	12.0	right_index_finger	red	horizontal	low	constant	red	vertical	high	alarm
77.71499999999999	10.99	delay	n/a	n/a	n/a	n/a	n/a	n/a	n/a	n/a	n/a	n/a	n/a	n/a	n/a	n/a	n/a	n/a
88.70499999999998	3.9250000000000003	encoding	n/a	Novel	NEITHER*	**RED***	RIGHT*INDEX*	n/a	60.0	n/a	n/a	n/a	n/a	n/a	n/a	n/a	n/a	n/a
92.62999999999998	4.71	delay	n/a	n/a	n/a	n/a	n/a	n/a	n/a	n/a	n/a	n/a	n/a	n/a	n/a	n/a	n/a	n/a
97.33999999999997	2.355	trial	1798.0	Novel	NEITHER*	**RED***	RIGHT*INDEX*	Correct	60.0	right_index_finger	blue	horizontal	low	constant	blue	vertical	low	alarm
99.69499999999998	1.57	ITI	n/a	n/a	n/a	n/a	n/a	n/a	n/a	n/a	n/a	n/a	n/a	n/a	n/a	n/a	n/a	n/a
101.26499999999997	2.355	trial	1677.0	Novel	NEITHER*	**RED***	RIGHT*INDEX*	Correct	60.0	right_index_finger	blue	horizontal	low	constant	blue	vertical	high	alarm
103.61999999999998	1.57	ITI	n/a	n/a	n/a	n/a	n/a	n/a	n/a	n/a	n/a	n/a	n/a	n/a	n/a	n/a	n/a	n/a
105.18999999999997	2.355	trial	643.0	Novel	NEITHER*	**RED***	RIGHT*INDEX*	Correct	60.0	right_middle_finger	red	vertical	high	alarm	blue	horizontal	low	constant
107.54499999999997	9.42	delay	n/a	n/a	n/a	n/a	n/a	n/a	n/a	n/a	n/a	n/a	n/a	n/a	n/a	n/a	n/a	n/a
116.96499999999997	3.9250000000000003	encoding	n/a	Novel	*EITHER*	**RED***	RIGHT*INDEX*	n/a	44.0	n/a	n/a	n/a	n/a	n/a	n/a	n/a	n/a	n/a
120.88999999999997	5.495	delay	n/a	n/a	n/a	n/a	n/a	n/a	n/a	n/a	n/a	n/a	n/a	n/a	n/a	n/a	n/a	n/a
126.38499999999998	2.355	trial	1954.0	Novel	*EITHER*	**RED***	RIGHT*INDEX*	Correct	44.0	right_middle_finger	blue	horizontal	high	alarm	blue	vertical	high	alarm
128.73999999999998	1.57	ITI	n/a	n/a	n/a	n/a	n/a	n/a	n/a	n/a	n/a	n/a	n/a	n/a	n/a	n/a	n/a	n/a
130.30999999999997	2.355	trial	1953.0	Novel	*EITHER*	**RED***	RIGHT*INDEX*	Correct	44.0	right_middle_finger	blue	horizontal	low	constant	blue	vertical	high	alarm
132.66499999999996	1.57	ITI	n/a	n/a	n/a	n/a	n/a	n/a	n/a	n/a	n/a	n/a	n/a	n/a	n/a	n/a	n/a	n/a
134.23499999999996	2.355	trial	1808.0	Novel	*EITHER*	**RED***	RIGHT*INDEX*	Correct	44.0	right_middle_finger	blue	horizontal	high	constant	blue	vertical	high	alarm
136.58999999999995	8.635	delay	n/a	n/a	n/a	n/a	n/a	n/a	n/a	n/a	n/a	n/a	n/a	n/a	n/a	n/a	n/a	n/a
145.22499999999994	3.9250000000000003	encoding	n/a	Novel	NOT*BOTH	CONSTANT	*LEFT*INDEX*	n/a	22.0	n/a	n/a	n/a	n/a	n/a	n/a	n/a	n/a	n/a
149.14999999999995	4.71	delay	n/a	n/a	n/a	n/a	n/a	n/a	n/a	n/a	n/a	n/a	n/a	n/a	n/a	n/a	n/a	n/a
153.85999999999996	2.355	trial	2004.0	Novel	NOT*BOTH	CONSTANT	*LEFT*INDEX*	Correct	22.0	left_index_finger	blue	vertical	high	constant	red	vertical	low	alarm
156.21499999999995	1.57	ITI	n/a	n/a	n/a	n/a	n/a	n/a	n/a	n/a	n/a	n/a	n/a	n/a	n/a	n/a	n/a	n/a
157.78499999999994	2.355	trial	2180.0	Novel	NOT*BOTH	CONSTANT	*LEFT*INDEX*	Correct	22.0	left_index_finger	blue	horizontal	low	alarm	red	vertical	high	alarm
160.13999999999993	1.57	ITI	n/a	n/a	n/a	n/a	n/a	n/a	n/a	n/a	n/a	n/a	n/a	n/a	n/a	n/a	n/a	n/a
161.70999999999992	2.355	trial	1603.0	Novel	NOT*BOTH	CONSTANT	*LEFT*INDEX*	Correct	22.0	left_middle_finger	red	horizontal	high	constant	red	vertical	high	constant
164.0649999999999	9.42	delay	n/a	n/a	n/a	n/a	n/a	n/a	n/a	n/a	n/a	n/a	n/a	n/a	n/a	n/a	n/a	n/a
173.4849999999999	3.9250000000000003	encoding	n/a	Novel	NOT*BOTH	**RED***	RIGHT*MIDDLE	n/a	27.0	n/a	n/a	n/a	n/a	n/a	n/a	n/a	n/a	n/a
177.4099999999999	4.71	delay	n/a	n/a	n/a	n/a	n/a	n/a	n/a	n/a	n/a	n/a	n/a	n/a	n/a	n/a	n/a	n/a
182.11999999999992	2.355	trial	1676.0	Novel	NOT*BOTH	**RED***	RIGHT*MIDDLE	Correct	27.0	right_index_finger	red	horizontal	high	constant	red	horizontal	high	constant
184.4749999999999	1.57	ITI	n/a	n/a	n/a	n/a	n/a	n/a	n/a	n/a	n/a	n/a	n/a	n/a	n/a	n/a	n/a	n/a
186.0449999999999	2.355	trial	1649.0	Novel	NOT*BOTH	**RED***	RIGHT*MIDDLE	Correct	27.0	right_index_finger	red	vertical	low	constant	red	vertical	high	alarm
188.3999999999999	1.57	ITI	n/a	n/a	n/a	n/a	n/a	n/a	n/a	n/a	n/a	n/a	n/a	n/a	n/a	n/a	n/a	n/a
189.96999999999989	2.355	trial	1635.0	Novel	NOT*BOTH	**RED***	RIGHT*MIDDLE	Correct	27.0	right_index_finger	red	vertical	high	constant	red	vertical	low	alarm
192.32499999999987	9.42	delay	n/a	n/a	n/a	n/a	n/a	n/a	n/a	n/a	n/a	n/a	n/a	n/a	n/a	n/a	n/a	n/a
201.74499999999986	3.9250000000000003	encoding	n/a	Novel	NOT*BOTH	CONSTANT	LEFT*MIDDLE*	n/a	21.0	n/a	n/a	n/a	n/a	n/a	n/a	n/a	n/a	n/a
205.66999999999987	4.71	delay	n/a	n/a	n/a	n/a	n/a	n/a	n/a	n/a	n/a	n/a	n/a	n/a	n/a	n/a	n/a	n/a
210.37999999999988	2.355	trial	2133.0	Novel	NOT*BOTH	CONSTANT	LEFT*MIDDLE*	Correct	21.0	left_middle_finger	red	horizontal	high	alarm	red	vertical	high	alarm
212.73499999999987	1.57	ITI	n/a	n/a	n/a	n/a	n/a	n/a	n/a	n/a	n/a	n/a	n/a	n/a	n/a	n/a	n/a	n/a
214.30499999999986	2.355	trial	1826.0	Novel	NOT*BOTH	CONSTANT	LEFT*MIDDLE*	Correct	21.0	left_index_finger	red	horizontal	high	constant	blue	vertical	low	constant
216.65999999999985	1.57	ITI	n/a	n/a	n/a	n/a	n/a	n/a	n/a	n/a	n/a	n/a	n/a	n/a	n/a	n/a	n/a	n/a
218.22999999999985	2.355	trial	1764.0	Novel	NOT*BOTH	CONSTANT	LEFT*MIDDLE*	Correct	21.0	left_index_finger	blue	horizontal	high	constant	red	horizontal	low	constant
220.58499999999984	9.42	delay	n/a	n/a	n/a	n/a	n/a	n/a	n/a	n/a	n/a	n/a	n/a	n/a	n/a	n/a	n/a	n/a
230.00499999999982	3.9250000000000003	encoding	n/a	Novel	**BOTH**	HI*PITCH	RIGHT*MIDDLE	n/a	3.0	n/a	n/a	n/a	n/a	n/a	n/a	n/a	n/a	n/a
233.92999999999984	5.495	delay	n/a	n/a	n/a	n/a	n/a	n/a	n/a	n/a	n/a	n/a	n/a	n/a	n/a	n/a	n/a	n/a
239.42499999999984	2.355	trial	1838.0	Novel	**BOTH**	HI*PITCH	RIGHT*MIDDLE	Correct	3.0	right_middle_finger	blue	horizontal	high	constant	blue	vertical	high	constant
241.77999999999983	1.57	ITI	n/a	n/a	n/a	n/a	n/a	n/a	n/a	n/a	n/a	n/a	n/a	n/a	n/a	n/a	n/a	n/a
243.34999999999982	2.355	trial	1665.0	Novel	**BOTH**	HI*PITCH	RIGHT*MIDDLE	Correct	3.0	right_middle_finger	blue	vertical	high	alarm	blue	vertical	high	alarm
245.7049999999998	1.57	ITI	n/a	n/a	n/a	n/a	n/a	n/a	n/a	n/a	n/a	n/a	n/a	n/a	n/a	n/a	n/a	n/a
247.2749999999998	2.355	trial	727.0	Novel	**BOTH**	HI*PITCH	RIGHT*MIDDLE	Correct	3.0	right_index_finger	blue	horizontal	low	constant	red	vertical	high	alarm
249.6299999999998	8.635	delay	n/a	n/a	n/a	n/a	n/a	n/a	n/a	n/a	n/a	n/a	n/a	n/a	n/a	n/a	n/a	n/a
258.2649999999998	3.9250000000000003	encoding	n/a	Novel	NEITHER*	VERTICAL	RIGHT*MIDDLE	n/a	63.0	n/a	n/a	n/a	n/a	n/a	n/a	n/a	n/a	n/a
262.1899999999998	2.355	delay	n/a	n/a	n/a	n/a	n/a	n/a	n/a	n/a	n/a	n/a	n/a	n/a	n/a	n/a	n/a	n/a
264.54499999999985	2.355	trial	2120.0	Novel	NEITHER*	VERTICAL	RIGHT*MIDDLE	Correct	63.0	right_middle_finger	blue	horizontal	high	constant	red	horizontal	high	constant
266.89999999999986	1.57	ITI	n/a	n/a	n/a	n/a	n/a	n/a	n/a	n/a	n/a	n/a	n/a	n/a	n/a	n/a	n/a	n/a
268.46999999999986	2.355	trial	1635.0	Novel	NEITHER*	VERTICAL	RIGHT*MIDDLE	Correct	63.0	right_index_finger	blue	vertical	high	constant	blue	vertical	low	constant
270.8249999999999	1.57	ITI	n/a	n/a	n/a	n/a	n/a	n/a	n/a	n/a	n/a	n/a	n/a	n/a	n/a	n/a	n/a	n/a
272.39499999999987	2.355	trial	2094.0	Novel	NEITHER*	VERTICAL	RIGHT*MIDDLE	Correct	63.0	right_middle_finger	blue	horizontal	low	alarm	blue	horizontal	low	alarm
274.7499999999999	11.775	delay	n/a	n/a	n/a	n/a	n/a	n/a	n/a	n/a	n/a	n/a	n/a	n/a	n/a	n/a	n/a	n/a
286.52499999999986	3.9250000000000003	encoding	n/a	Novel	**BOTH**	HI*PITCH	RIGHT*INDEX*	n/a	4.0	n/a	n/a	n/a	n/a	n/a	n/a	n/a	n/a	n/a
290.4499999999999	2.355	delay	n/a	n/a	n/a	n/a	n/a	n/a	n/a	n/a	n/a	n/a	n/a	n/a	n/a	n/a	n/a	n/a
292.8049999999999	2.355	trial	1732.0	Novel	**BOTH**	HI*PITCH	RIGHT*INDEX*	Correct	4.0	right_index_finger	red	horizontal	high	alarm	blue	horizontal	high	constant
295.1599999999999	1.57	ITI	n/a	n/a	n/a	n/a	n/a	n/a	n/a	n/a	n/a	n/a	n/a	n/a	n/a	n/a	n/a	n/a
296.7299999999999	2.355	trial	1779.0	Novel	**BOTH**	HI*PITCH	RIGHT*INDEX*	Correct	4.0	right_index_finger	blue	horizontal	high	alarm	red	vertical	high	alarm
299.0849999999999	1.57	ITI	n/a	n/a	n/a	n/a	n/a	n/a	n/a	n/a	n/a	n/a	n/a	n/a	n/a	n/a	n/a	n/a
300.6549999999999	2.355	trial	1616.0	Novel	**BOTH**	HI*PITCH	RIGHT*INDEX*	Correct	4.0	right_index_finger	red	horizontal	high	constant	red	horizontal	high	constant
303.00999999999993	11.775	delay	n/a	n/a	n/a	n/a	n/a	n/a	n/a	n/a	n/a	n/a	n/a	n/a	n/a	n/a	n/a	n/a
314.7849999999999	3.9250000000000003	encoding	n/a	Novel	**BOTH**	VERTICAL	RIGHT*INDEX*	n/a	16.0	n/a	n/a	n/a	n/a	n/a	n/a	n/a	n/a	n/a
318.7099999999999	6.28	delay	n/a	n/a	n/a	n/a	n/a	n/a	n/a	n/a	n/a	n/a	n/a	n/a	n/a	n/a	n/a	n/a
324.9899999999999	2.355	trial	1590.0	Novel	**BOTH**	VERTICAL	RIGHT*INDEX*	Correct	16.0	right_middle_finger	red	horizontal	high	constant	blue	horizontal	high	constant
327.3449999999999	1.57	ITI	n/a	n/a	n/a	n/a	n/a	n/a	n/a	n/a	n/a	n/a	n/a	n/a	n/a	n/a	n/a	n/a
328.9149999999999	2.355	trial	1541.0	Novel	**BOTH**	VERTICAL	RIGHT*INDEX*	Correct	16.0	right_middle_finger	red	horizontal	low	constant	blue	horizontal	high	constant
331.2699999999999	1.57	ITI	n/a	n/a	n/a	n/a	n/a	n/a	n/a	n/a	n/a	n/a	n/a	n/a	n/a	n/a	n/a	n/a
332.8399999999999	2.355	trial	1556.0	Novel	**BOTH**	VERTICAL	RIGHT*INDEX*	Correct	16.0	right_index_finger	blue	vertical	high	constant	blue	vertical	high	alarm
335.19499999999994	7.85	delay	n/a	n/a	n/a	n/a	n/a	n/a	n/a	n/a	n/a	n/a	n/a	n/a	n/a	n/a	n/a	n/a
343.04499999999996	3.9250000000000003	encoding	n/a	Novel	*EITHER*	CONSTANT	LEFT*MIDDLE*	n/a	37.0	n/a	n/a	n/a	n/a	n/a	n/a	n/a	n/a	n/a
346.96999999999997	3.925	delay	n/a	n/a	n/a	n/a	n/a	n/a	n/a	n/a	n/a	n/a	n/a	n/a	n/a	n/a	n/a	n/a
350.895	2.355	trial	2400.0	Novel	*EITHER*	CONSTANT	LEFT*MIDDLE*	Wrong	37.0	left_middle_finger	blue	vertical	low	alarm	red	vertical	high	alarm
353.25	1.57	ITI	n/a	n/a	n/a	n/a	n/a	n/a	n/a	n/a	n/a	n/a	n/a	n/a	n/a	n/a	n/a	n/a
354.82	2.355	trial	2214.0	Novel	*EITHER*	CONSTANT	LEFT*MIDDLE*	Correct	37.0	left_middle_finger	blue	horizontal	high	constant	red	vertical	low	constant
357.175	1.57	ITI	n/a	n/a	n/a	n/a	n/a	n/a	n/a	n/a	n/a	n/a	n/a	n/a	n/a	n/a	n/a	n/a
358.745	2.355	trial	0.0	Novel	*EITHER*	CONSTANT	LEFT*MIDDLE*	No Response	37.0	no_response	red	vertical	low	alarm	blue	horizontal	low	alarm
361.1	10.205	delay	n/a	n/a	n/a	n/a	n/a	n/a	n/a	n/a	n/a	n/a	n/a	n/a	n/a	n/a	n/a	n/a
371.305	3.9250000000000003	encoding	n/a	Novel	NEITHER*	CONSTANT	*LEFT*INDEX*	n/a	54.0	n/a	n/a	n/a	n/a	n/a	n/a	n/a	n/a	n/a
375.23	3.14	delay	n/a	n/a	n/a	n/a	n/a	n/a	n/a	n/a	n/a	n/a	n/a	n/a	n/a	n/a	n/a	n/a
378.37	2.355	trial	2562.0	Novel	NEITHER*	CONSTANT	*LEFT*INDEX*	Correct	54.0	left_middle_finger	blue	vertical	low	constant	blue	horizontal	low	alarm
380.725	1.57	ITI	n/a	n/a	n/a	n/a	n/a	n/a	n/a	n/a	n/a	n/a	n/a	n/a	n/a	n/a	n/a	n/a
382.295	2.355	trial	2169.0	Novel	NEITHER*	CONSTANT	*LEFT*INDEX*	Correct	54.0	left_index_finger	blue	horizontal	high	alarm	blue	horizontal	high	alarm
384.65000000000003	1.57	ITI	n/a	n/a	n/a	n/a	n/a	n/a	n/a	n/a	n/a	n/a	n/a	n/a	n/a	n/a	n/a	n/a
386.22	2.355	trial	1270.0	Novel	NEITHER*	CONSTANT	*LEFT*INDEX*	Correct	54.0	left_middle_finger	blue	vertical	low	constant	red	horizontal	low	alarm
388.57500000000005	10.99	delay	n/a	n/a	n/a	n/a	n/a	n/a	n/a	n/a	n/a	n/a	n/a	n/a	n/a	n/a	n/a	n/a
399.56500000000005	3.9250000000000003	encoding	n/a	Novel	NOT*BOTH	**RED***	*LEFT*INDEX*	n/a	26.0	n/a	n/a	n/a	n/a	n/a	n/a	n/a	n/a	n/a
403.49000000000007	1.57	delay	n/a	n/a	n/a	n/a	n/a	n/a	n/a	n/a	n/a	n/a	n/a	n/a	n/a	n/a	n/a	n/a
405.06000000000006	2.355	trial	1772.0	Novel	NOT*BOTH	**RED***	*LEFT*INDEX*	Correct	26.0	left_middle_finger	red	horizontal	low	constant	red	horizontal	low	alarm
407.4150000000001	1.57	ITI	n/a	n/a	n/a	n/a	n/a	n/a	n/a	n/a	n/a	n/a	n/a	n/a	n/a	n/a	n/a	n/a
408.98500000000007	2.355	trial	1668.0	Novel	NOT*BOTH	**RED***	*LEFT*INDEX*	Correct	26.0	left_middle_finger	red	vertical	low	constant	red	vertical	high	constant
411.3400000000001	1.57	ITI	n/a	n/a	n/a	n/a	n/a	n/a	n/a	n/a	n/a	n/a	n/a	n/a	n/a	n/a	n/a	n/a
412.9100000000001	2.355	trial	1170.0	Novel	NOT*BOTH	**RED***	*LEFT*INDEX*	Correct	26.0	left_index_finger	blue	vertical	low	constant	blue	horizontal	high	constant
415.2650000000001	12.56	delay	n/a	n/a	n/a	n/a	n/a	n/a	n/a	n/a	n/a	n/a	n/a	n/a	n/a	n/a	n/a	n/a
427.8250000000001	3.9250000000000003	encoding	n/a	Novel	*EITHER*	**RED***	*LEFT*INDEX*	n/a	42.0	n/a	n/a	n/a	n/a	n/a	n/a	n/a	n/a	n/a
431.7500000000001	3.925	delay	n/a	n/a	n/a	n/a	n/a	n/a	n/a	n/a	n/a	n/a	n/a	n/a	n/a	n/a	n/a	n/a
435.6750000000001	2.355	trial	2717.0	Novel	*EITHER*	**RED***	*LEFT*INDEX*	Correct	42.0	left_middle_finger	blue	horizontal	high	constant	blue	vertical	low	constant
438.03000000000014	1.57	ITI	n/a	n/a	n/a	n/a	n/a	n/a	n/a	n/a	n/a	n/a	n/a	n/a	n/a	n/a	n/a	n/a
439.60000000000014	2.355	trial	1924.0	Novel	*EITHER*	**RED***	*LEFT*INDEX*	Correct	42.0	left_index_finger	red	vertical	low	constant	red	horizontal	low	alarm
441.95500000000015	1.57	ITI	n/a	n/a	n/a	n/a	n/a	n/a	n/a	n/a	n/a	n/a	n/a	n/a	n/a	n/a	n/a	n/a
443.52500000000015	2.355	trial	1531.0	Novel	*EITHER*	**RED***	*LEFT*INDEX*	Correct	42.0	left_index_finger	red	horizontal	high	constant	red	vertical	high	constant
445.88000000000017	10.205	delay	n/a	n/a	n/a	n/a	n/a	n/a	n/a	n/a	n/a	n/a	n/a	n/a	n/a	n/a	n/a	n/a
