onset	duration	task_event	rt_in_ms	task_novelty	logic_rule	sensory_rule	motor_rule	performance	task_id	motor_response	stimulus1_color	stimulus1_orientation	stimulus1_pitch	stimulus1_continuity	stimulus2_color	stimulus2_orientation	stimulus2_pitch	stimulus2_continuity
0.0	3.9250000000000003	delay	n/a	n/a	n/a	n/a	n/a	n/a	n/a	n/a	n/a	n/a	n/a	n/a	n/a	n/a	n/a	n/a
3.9250000000000003	3.9250000000000003	encoding	n/a	Novel	NEITHER*	CONSTANT	RIGHT*MIDDLE	n/a	55.0	n/a	n/a	n/a	n/a	n/a	n/a	n/a	n/a	n/a
7.8500000000000005	3.14	delay	n/a	n/a	n/a	n/a	n/a	n/a	n/a	n/a	n/a	n/a	n/a	n/a	n/a	n/a	n/a	n/a
10.99	2.355	trial	3771.0	Novel	NEITHER*	CONSTANT	RIGHT*MIDDLE	Correct	55.0	right_index_finger	blue	vertical	high	constant	blue	vertical	low	alarm
13.345	1.57	ITI	n/a	n/a	n/a	n/a	n/a	n/a	n/a	n/a	n/a	n/a	n/a	n/a	n/a	n/a	n/a	n/a
14.915000000000001	2.355	trial	2487.0	Novel	NEITHER*	CONSTANT	RIGHT*MIDDLE	Correct	55.0	right_middle_finger	red	horizontal	low	alarm	red	vertical	high	alarm
17.27	1.57	ITI	n/a	n/a	n/a	n/a	n/a	n/a	n/a	n/a	n/a	n/a	n/a	n/a	n/a	n/a	n/a	n/a
18.84	2.355	trial	1604.0	Novel	NEITHER*	CONSTANT	RIGHT*MIDDLE	Correct	55.0	right_index_finger	red	vertical	low	constant	blue	horizontal	high	constant
21.195	10.99	delay	n/a	n/a	n/a	n/a	n/a	n/a	n/a	n/a	n/a	n/a	n/a	n/a	n/a	n/a	n/a	n/a
32.185	3.9250000000000003	encoding	n/a	Novel	NEITHER*	VERTICAL	*LEFT*INDEX*	n/a	62.0	n/a	n/a	n/a	n/a	n/a	n/a	n/a	n/a	n/a
36.11	5.495	delay	n/a	n/a	n/a	n/a	n/a	n/a	n/a	n/a	n/a	n/a	n/a	n/a	n/a	n/a	n/a	n/a
41.605	2.355	trial	1825.0	Novel	NEITHER*	VERTICAL	*LEFT*INDEX*	Correct	62.0	left_middle_finger	red	horizontal	high	constant	red	vertical	high	alarm
43.959999999999994	1.57	ITI	n/a	n/a	n/a	n/a	n/a	n/a	n/a	n/a	n/a	n/a	n/a	n/a	n/a	n/a	n/a	n/a
45.529999999999994	2.355	trial	1611.0	Novel	NEITHER*	VERTICAL	*LEFT*INDEX*	Correct	62.0	left_index_finger	blue	horizontal	high	alarm	red	horizontal	high	alarm
47.88499999999999	1.57	ITI	n/a	n/a	n/a	n/a	n/a	n/a	n/a	n/a	n/a	n/a	n/a	n/a	n/a	n/a	n/a	n/a
49.45499999999999	2.355	trial	1892.0	Novel	NEITHER*	VERTICAL	*LEFT*INDEX*	Correct	62.0	left_index_finger	red	horizontal	high	constant	blue	horizontal	low	alarm
51.80999999999999	8.635	delay	n/a	n/a	n/a	n/a	n/a	n/a	n/a	n/a	n/a	n/a	n/a	n/a	n/a	n/a	n/a	n/a
60.444999999999986	3.9250000000000003	encoding	n/a	Novel	*EITHER*	**RED***	LEFT*MIDDLE*	n/a	41.0	n/a	n/a	n/a	n/a	n/a	n/a	n/a	n/a	n/a
64.36999999999999	3.925	delay	n/a	n/a	n/a	n/a	n/a	n/a	n/a	n/a	n/a	n/a	n/a	n/a	n/a	n/a	n/a	n/a
68.29499999999999	2.355	trial	774.0	Novel	*EITHER*	**RED***	LEFT*MIDDLE*	Correct	41.0	left_middle_finger	red	vertical	low	constant	red	vertical	low	alarm
70.64999999999999	1.57	ITI	n/a	n/a	n/a	n/a	n/a	n/a	n/a	n/a	n/a	n/a	n/a	n/a	n/a	n/a	n/a	n/a
72.21999999999998	2.355	trial	1804.0	Novel	*EITHER*	**RED***	LEFT*MIDDLE*	Correct	41.0	left_index_finger	blue	horizontal	high	constant	blue	vertical	low	constant
74.57499999999999	1.57	ITI	n/a	n/a	n/a	n/a	n/a	n/a	n/a	n/a	n/a	n/a	n/a	n/a	n/a	n/a	n/a	n/a
76.14499999999998	2.355	trial	1783.0	Novel	*EITHER*	**RED***	LEFT*MIDDLE*	Correct	41.0	left_index_finger	blue	vertical	high	constant	blue	vertical	high	constant
78.49999999999999	10.205	delay	n/a	n/a	n/a	n/a	n/a	n/a	n/a	n/a	n/a	n/a	n/a	n/a	n/a	n/a	n/a	n/a
88.70499999999998	3.9250000000000003	encoding	n/a	Novel	**BOTH**	VERTICAL	LEFT*MIDDLE*	n/a	13.0	n/a	n/a	n/a	n/a	n/a	n/a	n/a	n/a	n/a
92.62999999999998	5.495	delay	n/a	n/a	n/a	n/a	n/a	n/a	n/a	n/a	n/a	n/a	n/a	n/a	n/a	n/a	n/a	n/a
98.12499999999999	2.355	trial	1798.0	Novel	**BOTH**	VERTICAL	LEFT*MIDDLE*	Correct	13.0	left_middle_finger	blue	vertical	high	alarm	blue	vertical	low	constant
100.47999999999999	1.57	ITI	n/a	n/a	n/a	n/a	n/a	n/a	n/a	n/a	n/a	n/a	n/a	n/a	n/a	n/a	n/a	n/a
102.04999999999998	2.355	trial	1604.0	Novel	**BOTH**	VERTICAL	LEFT*MIDDLE*	Correct	13.0	left_middle_finger	blue	vertical	low	alarm	blue	vertical	low	alarm
104.40499999999999	1.57	ITI	n/a	n/a	n/a	n/a	n/a	n/a	n/a	n/a	n/a	n/a	n/a	n/a	n/a	n/a	n/a	n/a
105.97499999999998	2.355	trial	1657.0	Novel	**BOTH**	VERTICAL	LEFT*MIDDLE*	Correct	13.0	left_middle_finger	red	vertical	low	alarm	red	vertical	low	constant
108.32999999999998	8.635	delay	n/a	n/a	n/a	n/a	n/a	n/a	n/a	n/a	n/a	n/a	n/a	n/a	n/a	n/a	n/a	n/a
116.96499999999999	3.9250000000000003	encoding	n/a	Novel	NOT*BOTH	HI*PITCH	*LEFT*INDEX*	n/a	18.0	n/a	n/a	n/a	n/a	n/a	n/a	n/a	n/a	n/a
120.88999999999999	5.495	delay	n/a	n/a	n/a	n/a	n/a	n/a	n/a	n/a	n/a	n/a	n/a	n/a	n/a	n/a	n/a	n/a
126.38499999999999	2.355	trial	3535.0	Novel	NOT*BOTH	HI*PITCH	*LEFT*INDEX*	Wrong	18.0	left_middle_finger	red	horizontal	low	constant	red	vertical	low	alarm
128.73999999999998	1.57	ITI	n/a	n/a	n/a	n/a	n/a	n/a	n/a	n/a	n/a	n/a	n/a	n/a	n/a	n/a	n/a	n/a
130.30999999999997	2.355	trial	1711.0	Novel	NOT*BOTH	HI*PITCH	*LEFT*INDEX*	Wrong	18.0	left_middle_finger	blue	horizontal	low	alarm	blue	vertical	low	constant
132.66499999999996	1.57	ITI	n/a	n/a	n/a	n/a	n/a	n/a	n/a	n/a	n/a	n/a	n/a	n/a	n/a	n/a	n/a	n/a
134.23499999999996	2.355	trial	0.0	Novel	NOT*BOTH	HI*PITCH	*LEFT*INDEX*	No Response	18.0	no_response	red	vertical	high	constant	red	horizontal	high	alarm
136.58999999999995	8.635	delay	n/a	n/a	n/a	n/a	n/a	n/a	n/a	n/a	n/a	n/a	n/a	n/a	n/a	n/a	n/a	n/a
145.22499999999994	3.9250000000000003	encoding	n/a	Novel	NEITHER*	**RED***	LEFT*MIDDLE*	n/a	57.0	n/a	n/a	n/a	n/a	n/a	n/a	n/a	n/a	n/a
149.14999999999995	6.28	delay	n/a	n/a	n/a	n/a	n/a	n/a	n/a	n/a	n/a	n/a	n/a	n/a	n/a	n/a	n/a	n/a
155.42999999999995	2.355	trial	1142.0	Novel	NEITHER*	**RED***	LEFT*MIDDLE*	Correct	57.0	left_index_finger	red	vertical	high	alarm	red	horizontal	low	constant
157.78499999999994	1.57	ITI	n/a	n/a	n/a	n/a	n/a	n/a	n/a	n/a	n/a	n/a	n/a	n/a	n/a	n/a	n/a	n/a
159.35499999999993	2.355	trial	1642.0	Novel	NEITHER*	**RED***	LEFT*MIDDLE*	Correct	57.0	left_middle_finger	blue	horizontal	high	constant	blue	vertical	low	alarm
161.70999999999992	1.57	ITI	n/a	n/a	n/a	n/a	n/a	n/a	n/a	n/a	n/a	n/a	n/a	n/a	n/a	n/a	n/a	n/a
163.27999999999992	2.355	trial	1577.0	Novel	NEITHER*	**RED***	LEFT*MIDDLE*	Correct	57.0	left_middle_finger	blue	horizontal	low	alarm	blue	vertical	high	alarm
165.6349999999999	7.85	delay	n/a	n/a	n/a	n/a	n/a	n/a	n/a	n/a	n/a	n/a	n/a	n/a	n/a	n/a	n/a	n/a
173.4849999999999	3.9250000000000003	encoding	n/a	Novel	NEITHER*	HI*PITCH	LEFT*MIDDLE*	n/a	49.0	n/a	n/a	n/a	n/a	n/a	n/a	n/a	n/a	n/a
177.4099999999999	6.28	delay	n/a	n/a	n/a	n/a	n/a	n/a	n/a	n/a	n/a	n/a	n/a	n/a	n/a	n/a	n/a	n/a
183.6899999999999	2.355	trial	1734.0	Novel	NEITHER*	HI*PITCH	LEFT*MIDDLE*	Correct	49.0	left_middle_finger	red	horizontal	low	constant	blue	vertical	low	alarm
186.0449999999999	1.57	ITI	n/a	n/a	n/a	n/a	n/a	n/a	n/a	n/a	n/a	n/a	n/a	n/a	n/a	n/a	n/a	n/a
187.6149999999999	2.355	trial	1619.0	Novel	NEITHER*	HI*PITCH	LEFT*MIDDLE*	Correct	49.0	left_index_finger	blue	vertical	low	alarm	red	horizontal	high	constant
189.96999999999989	1.57	ITI	n/a	n/a	n/a	n/a	n/a	n/a	n/a	n/a	n/a	n/a	n/a	n/a	n/a	n/a	n/a	n/a
191.53999999999988	2.355	trial	1354.0	Novel	NEITHER*	HI*PITCH	LEFT*MIDDLE*	Correct	49.0	left_index_finger	red	vertical	high	constant	red	horizontal	high	alarm
193.89499999999987	7.85	delay	n/a	n/a	n/a	n/a	n/a	n/a	n/a	n/a	n/a	n/a	n/a	n/a	n/a	n/a	n/a	n/a
201.74499999999986	3.9250000000000003	encoding	n/a	Novel	NOT*BOTH	HI*PITCH	LEFT*MIDDLE*	n/a	17.0	n/a	n/a	n/a	n/a	n/a	n/a	n/a	n/a	n/a
205.66999999999987	2.355	delay	n/a	n/a	n/a	n/a	n/a	n/a	n/a	n/a	n/a	n/a	n/a	n/a	n/a	n/a	n/a	n/a
208.02499999999986	2.355	trial	3275.0	Novel	NOT*BOTH	HI*PITCH	LEFT*MIDDLE*	Correct	17.0	left_middle_finger	red	horizontal	low	alarm	blue	horizontal	low	alarm
210.37999999999985	1.57	ITI	n/a	n/a	n/a	n/a	n/a	n/a	n/a	n/a	n/a	n/a	n/a	n/a	n/a	n/a	n/a	n/a
211.94999999999985	2.355	trial	1609.0	Novel	NOT*BOTH	HI*PITCH	LEFT*MIDDLE*	Correct	17.0	left_index_finger	red	vertical	high	alarm	red	vertical	high	alarm
214.30499999999984	1.57	ITI	n/a	n/a	n/a	n/a	n/a	n/a	n/a	n/a	n/a	n/a	n/a	n/a	n/a	n/a	n/a	n/a
215.87499999999983	2.355	trial	2079.0	Novel	NOT*BOTH	HI*PITCH	LEFT*MIDDLE*	Correct	17.0	left_middle_finger	blue	vertical	high	constant	red	horizontal	low	constant
218.22999999999982	11.775	delay	n/a	n/a	n/a	n/a	n/a	n/a	n/a	n/a	n/a	n/a	n/a	n/a	n/a	n/a	n/a	n/a
230.00499999999982	3.9250000000000003	encoding	n/a	Novel	NOT*BOTH	VERTICAL	*LEFT*INDEX*	n/a	30.0	n/a	n/a	n/a	n/a	n/a	n/a	n/a	n/a	n/a
233.92999999999984	3.925	delay	n/a	n/a	n/a	n/a	n/a	n/a	n/a	n/a	n/a	n/a	n/a	n/a	n/a	n/a	n/a	n/a
237.85499999999985	2.355	trial	645.0	Novel	NOT*BOTH	VERTICAL	*LEFT*INDEX*	Wrong	30.0	left_middle_finger	red	horizontal	high	alarm	blue	horizontal	high	alarm
240.20999999999984	1.57	ITI	n/a	n/a	n/a	n/a	n/a	n/a	n/a	n/a	n/a	n/a	n/a	n/a	n/a	n/a	n/a	n/a
241.77999999999983	2.355	trial	1955.0	Novel	NOT*BOTH	VERTICAL	*LEFT*INDEX*	Wrong	30.0	left_index_finger	blue	vertical	high	constant	red	vertical	low	alarm
244.13499999999982	1.57	ITI	n/a	n/a	n/a	n/a	n/a	n/a	n/a	n/a	n/a	n/a	n/a	n/a	n/a	n/a	n/a	n/a
245.7049999999998	2.355	trial	1091.0	Novel	NOT*BOTH	VERTICAL	*LEFT*INDEX*	Wrong	30.0	left_middle_finger	blue	horizontal	high	constant	red	horizontal	high	alarm
248.0599999999998	10.205	delay	n/a	n/a	n/a	n/a	n/a	n/a	n/a	n/a	n/a	n/a	n/a	n/a	n/a	n/a	n/a	n/a
258.2649999999998	3.9250000000000003	encoding	n/a	Novel	**BOTH**	**RED***	*LEFT*INDEX*	n/a	10.0	n/a	n/a	n/a	n/a	n/a	n/a	n/a	n/a	n/a
262.1899999999998	5.495	delay	n/a	n/a	n/a	n/a	n/a	n/a	n/a	n/a	n/a	n/a	n/a	n/a	n/a	n/a	n/a	n/a
267.68499999999983	2.355	trial	1781.0	Novel	**BOTH**	**RED***	*LEFT*INDEX*	Correct	10.0	left_index_finger	red	vertical	low	constant	red	vertical	high	constant
270.03999999999985	1.57	ITI	n/a	n/a	n/a	n/a	n/a	n/a	n/a	n/a	n/a	n/a	n/a	n/a	n/a	n/a	n/a	n/a
271.60999999999984	2.355	trial	1650.0	Novel	**BOTH**	**RED***	*LEFT*INDEX*	Correct	10.0	left_index_finger	red	vertical	high	constant	red	vertical	low	alarm
273.96499999999986	1.57	ITI	n/a	n/a	n/a	n/a	n/a	n/a	n/a	n/a	n/a	n/a	n/a	n/a	n/a	n/a	n/a	n/a
275.53499999999985	2.355	trial	999.0	Novel	**BOTH**	**RED***	*LEFT*INDEX*	Correct	10.0	left_middle_finger	blue	vertical	high	alarm	blue	horizontal	low	alarm
277.8899999999999	8.635	delay	n/a	n/a	n/a	n/a	n/a	n/a	n/a	n/a	n/a	n/a	n/a	n/a	n/a	n/a	n/a	n/a
286.52499999999986	3.9250000000000003	encoding	n/a	Prac	**BOTH**	CONSTANT	RIGHT*INDEX*	n/a	8.0	n/a	n/a	n/a	n/a	n/a	n/a	n/a	n/a	n/a
290.4499999999999	4.71	delay	n/a	n/a	n/a	n/a	n/a	n/a	n/a	n/a	n/a	n/a	n/a	n/a	n/a	n/a	n/a	n/a
295.15999999999985	2.355	trial	1956.0	Prac	**BOTH**	CONSTANT	RIGHT*INDEX*	Correct	8.0	right_index_finger	red	vertical	high	constant	blue	vertical	low	constant
297.5149999999999	1.57	ITI	n/a	n/a	n/a	n/a	n/a	n/a	n/a	n/a	n/a	n/a	n/a	n/a	n/a	n/a	n/a	n/a
299.08499999999987	2.355	trial	1703.0	Prac	**BOTH**	CONSTANT	RIGHT*INDEX*	Correct	8.0	right_index_finger	blue	vertical	low	constant	red	vertical	low	constant
301.4399999999999	1.57	ITI	n/a	n/a	n/a	n/a	n/a	n/a	n/a	n/a	n/a	n/a	n/a	n/a	n/a	n/a	n/a	n/a
303.0099999999999	2.355	trial	513.0	Prac	**BOTH**	CONSTANT	RIGHT*INDEX*	Correct	8.0	right_middle_finger	red	horizontal	high	alarm	red	vertical	high	alarm
305.3649999999999	9.42	delay	n/a	n/a	n/a	n/a	n/a	n/a	n/a	n/a	n/a	n/a	n/a	n/a	n/a	n/a	n/a	n/a
314.7849999999999	3.9250000000000003	encoding	n/a	Novel	**BOTH**	CONSTANT	RIGHT*MIDDLE	n/a	7.0	n/a	n/a	n/a	n/a	n/a	n/a	n/a	n/a	n/a
318.7099999999999	4.71	delay	n/a	n/a	n/a	n/a	n/a	n/a	n/a	n/a	n/a	n/a	n/a	n/a	n/a	n/a	n/a	n/a
323.4199999999999	2.355	trial	1925.0	Novel	**BOTH**	CONSTANT	RIGHT*MIDDLE	Correct	7.0	right_middle_finger	blue	vertical	low	constant	blue	vertical	high	constant
325.7749999999999	1.57	ITI	n/a	n/a	n/a	n/a	n/a	n/a	n/a	n/a	n/a	n/a	n/a	n/a	n/a	n/a	n/a	n/a
327.3449999999999	2.355	trial	1590.0	Novel	**BOTH**	CONSTANT	RIGHT*MIDDLE	Correct	7.0	right_middle_finger	red	horizontal	high	constant	blue	vertical	high	constant
329.69999999999993	1.57	ITI	n/a	n/a	n/a	n/a	n/a	n/a	n/a	n/a	n/a	n/a	n/a	n/a	n/a	n/a	n/a	n/a
331.2699999999999	2.355	trial	1833.0	Novel	**BOTH**	CONSTANT	RIGHT*MIDDLE	Correct	7.0	right_middle_finger	red	horizontal	high	constant	red	horizontal	low	constant
333.62499999999994	9.42	delay	n/a	n/a	n/a	n/a	n/a	n/a	n/a	n/a	n/a	n/a	n/a	n/a	n/a	n/a	n/a	n/a
343.04499999999996	3.9250000000000003	encoding	n/a	Novel	*EITHER*	HI*PITCH	RIGHT*INDEX*	n/a	36.0	n/a	n/a	n/a	n/a	n/a	n/a	n/a	n/a	n/a
346.96999999999997	5.495	delay	n/a	n/a	n/a	n/a	n/a	n/a	n/a	n/a	n/a	n/a	n/a	n/a	n/a	n/a	n/a	n/a
352.465	2.355	trial	2111.0	Novel	*EITHER*	HI*PITCH	RIGHT*INDEX*	Correct	36.0	right_index_finger	red	vertical	low	constant	blue	horizontal	high	constant
354.82	1.57	ITI	n/a	n/a	n/a	n/a	n/a	n/a	n/a	n/a	n/a	n/a	n/a	n/a	n/a	n/a	n/a	n/a
356.39	2.355	trial	858.0	Novel	*EITHER*	HI*PITCH	RIGHT*INDEX*	Correct	36.0	right_index_finger	red	vertical	high	constant	blue	horizontal	low	constant
358.745	1.57	ITI	n/a	n/a	n/a	n/a	n/a	n/a	n/a	n/a	n/a	n/a	n/a	n/a	n/a	n/a	n/a	n/a
360.315	2.355	trial	1862.0	Novel	*EITHER*	HI*PITCH	RIGHT*INDEX*	Correct	36.0	right_middle_finger	blue	horizontal	low	alarm	red	horizontal	low	alarm
362.67	8.635	delay	n/a	n/a	n/a	n/a	n/a	n/a	n/a	n/a	n/a	n/a	n/a	n/a	n/a	n/a	n/a	n/a
371.305	3.9250000000000003	encoding	n/a	Novel	NEITHER*	CONSTANT	LEFT*MIDDLE*	n/a	53.0	n/a	n/a	n/a	n/a	n/a	n/a	n/a	n/a	n/a
375.23	6.28	delay	n/a	n/a	n/a	n/a	n/a	n/a	n/a	n/a	n/a	n/a	n/a	n/a	n/a	n/a	n/a	n/a
381.51	2.355	trial	2474.0	Novel	NEITHER*	CONSTANT	LEFT*MIDDLE*	Correct	53.0	left_middle_finger	blue	vertical	low	alarm	red	horizontal	low	alarm
383.865	1.57	ITI	n/a	n/a	n/a	n/a	n/a	n/a	n/a	n/a	n/a	n/a	n/a	n/a	n/a	n/a	n/a	n/a
385.435	2.355	trial	1421.0	Novel	NEITHER*	CONSTANT	LEFT*MIDDLE*	Correct	53.0	left_index_finger	red	vertical	low	constant	blue	vertical	low	alarm
387.79	1.57	ITI	n/a	n/a	n/a	n/a	n/a	n/a	n/a	n/a	n/a	n/a	n/a	n/a	n/a	n/a	n/a	n/a
389.36	2.355	trial	0.0	Novel	NEITHER*	CONSTANT	LEFT*MIDDLE*	No Response	53.0	no_response	red	horizontal	low	constant	red	horizontal	high	constant
391.71500000000003	7.85	delay	n/a	n/a	n/a	n/a	n/a	n/a	n/a	n/a	n/a	n/a	n/a	n/a	n/a	n/a	n/a	n/a
399.56500000000005	3.9250000000000003	encoding	n/a	Novel	NOT*BOTH	VERTICAL	RIGHT*INDEX*	n/a	32.0	n/a	n/a	n/a	n/a	n/a	n/a	n/a	n/a	n/a
403.49000000000007	3.14	delay	n/a	n/a	n/a	n/a	n/a	n/a	n/a	n/a	n/a	n/a	n/a	n/a	n/a	n/a	n/a	n/a
406.63000000000005	2.355	trial	2276.0	Novel	NOT*BOTH	VERTICAL	RIGHT*INDEX*	Wrong	32.0	right_middle_finger	blue	horizontal	low	alarm	red	horizontal	low	constant
408.98500000000007	1.57	ITI	n/a	n/a	n/a	n/a	n/a	n/a	n/a	n/a	n/a	n/a	n/a	n/a	n/a	n/a	n/a	n/a
410.55500000000006	2.355	trial	2897.0	Novel	NOT*BOTH	VERTICAL	RIGHT*INDEX*	Wrong	32.0	right_index_finger	blue	vertical	high	alarm	blue	vertical	high	alarm
412.9100000000001	1.57	ITI	n/a	n/a	n/a	n/a	n/a	n/a	n/a	n/a	n/a	n/a	n/a	n/a	n/a	n/a	n/a	n/a
414.4800000000001	2.355	trial	0.0	Novel	NOT*BOTH	VERTICAL	RIGHT*INDEX*	No Response	32.0	no_response	red	horizontal	high	constant	blue	horizontal	high	constant
416.8350000000001	10.99	delay	n/a	n/a	n/a	n/a	n/a	n/a	n/a	n/a	n/a	n/a	n/a	n/a	n/a	n/a	n/a	n/a
427.8250000000001	3.9250000000000003	encoding	n/a	Novel	NOT*BOTH	VERTICAL	RIGHT*MIDDLE	n/a	31.0	n/a	n/a	n/a	n/a	n/a	n/a	n/a	n/a	n/a
431.7500000000001	2.355	delay	n/a	n/a	n/a	n/a	n/a	n/a	n/a	n/a	n/a	n/a	n/a	n/a	n/a	n/a	n/a	n/a
434.10500000000013	2.355	trial	1891.0	Novel	NOT*BOTH	VERTICAL	RIGHT*MIDDLE	Correct	31.0	right_middle_finger	red	vertical	high	alarm	red	horizontal	high	constant
436.46000000000015	1.57	ITI	n/a	n/a	n/a	n/a	n/a	n/a	n/a	n/a	n/a	n/a	n/a	n/a	n/a	n/a	n/a	n/a
438.03000000000014	2.355	trial	1603.0	Novel	NOT*BOTH	VERTICAL	RIGHT*MIDDLE	Correct	31.0	right_index_finger	red	vertical	high	alarm	blue	vertical	low	constant
440.38500000000016	1.57	ITI	n/a	n/a	n/a	n/a	n/a	n/a	n/a	n/a	n/a	n/a	n/a	n/a	n/a	n/a	n/a	n/a
441.95500000000015	2.355	trial	1774.0	Novel	NOT*BOTH	VERTICAL	RIGHT*MIDDLE	Correct	31.0	right_middle_finger	red	vertical	high	alarm	blue	horizontal	low	constant
444.3100000000002	11.775	delay	n/a	n/a	n/a	n/a	n/a	n/a	n/a	n/a	n/a	n/a	n/a	n/a	n/a	n/a	n/a	n/a
