onset	duration	task_event	rt_in_ms	task_novelty	logic_rule	sensory_rule	motor_rule	performance	task_id	motor_response	stimulus1_color	stimulus1_orientation	stimulus1_pitch	stimulus1_continuity	stimulus2_color	stimulus2_orientation	stimulus2_pitch	stimulus2_continuity
0.0	3.9250000000000003	delay	n/a	n/a	n/a	n/a	n/a	n/a	n/a	n/a	n/a	n/a	n/a	n/a	n/a	n/a	n/a	n/a
3.9250000000000003	3.9250000000000003	encoding	n/a	Prac	NEITHER*	**RED***	*LEFT*INDEX*	n/a	58.0	n/a	n/a	n/a	n/a	n/a	n/a	n/a	n/a	n/a
7.8500000000000005	6.28	delay	n/a	n/a	n/a	n/a	n/a	n/a	n/a	n/a	n/a	n/a	n/a	n/a	n/a	n/a	n/a	n/a
14.13	2.355	trial	1834.0	Prac	NEITHER*	**RED***	*LEFT*INDEX*	Correct	58.0	left_middle_finger	blue	horizontal	low	constant	red	horizontal	high	alarm
16.485	1.57	ITI	n/a	n/a	n/a	n/a	n/a	n/a	n/a	n/a	n/a	n/a	n/a	n/a	n/a	n/a	n/a	n/a
18.055	2.355	trial	1670.0	Prac	NEITHER*	**RED***	*LEFT*INDEX*	Correct	58.0	left_index_finger	blue	vertical	low	alarm	blue	vertical	high	alarm
20.41	1.57	ITI	n/a	n/a	n/a	n/a	n/a	n/a	n/a	n/a	n/a	n/a	n/a	n/a	n/a	n/a	n/a	n/a
21.98	2.355	trial	1743.0	Prac	NEITHER*	**RED***	*LEFT*INDEX*	Correct	58.0	left_index_finger	blue	horizontal	low	constant	blue	horizontal	high	alarm
24.335	7.85	delay	n/a	n/a	n/a	n/a	n/a	n/a	n/a	n/a	n/a	n/a	n/a	n/a	n/a	n/a	n/a	n/a
32.185	3.9250000000000003	encoding	n/a	Novel	*EITHER*	CONSTANT	RIGHT*MIDDLE	n/a	39.0	n/a	n/a	n/a	n/a	n/a	n/a	n/a	n/a	n/a
36.11	6.28	delay	n/a	n/a	n/a	n/a	n/a	n/a	n/a	n/a	n/a	n/a	n/a	n/a	n/a	n/a	n/a	n/a
42.39	2.355	trial	2286.0	Novel	*EITHER*	CONSTANT	RIGHT*MIDDLE	Correct	39.0	right_index_finger	red	horizontal	high	alarm	blue	vertical	low	alarm
44.745	1.57	ITI	n/a	n/a	n/a	n/a	n/a	n/a	n/a	n/a	n/a	n/a	n/a	n/a	n/a	n/a	n/a	n/a
46.315	2.355	trial	2714.0	Novel	*EITHER*	CONSTANT	RIGHT*MIDDLE	Correct	39.0	right_index_finger	blue	horizontal	high	alarm	red	vertical	low	alarm
48.669999999999995	1.57	ITI	n/a	n/a	n/a	n/a	n/a	n/a	n/a	n/a	n/a	n/a	n/a	n/a	n/a	n/a	n/a	n/a
50.239999999999995	2.355	trial	832.0	Novel	*EITHER*	CONSTANT	RIGHT*MIDDLE	Correct	39.0	right_middle_finger	red	horizontal	high	constant	blue	vertical	high	constant
52.59499999999999	7.85	delay	n/a	n/a	n/a	n/a	n/a	n/a	n/a	n/a	n/a	n/a	n/a	n/a	n/a	n/a	n/a	n/a
60.44499999999999	3.9250000000000003	encoding	n/a	Novel	*EITHER*	HI*PITCH	RIGHT*MIDDLE	n/a	35.0	n/a	n/a	n/a	n/a	n/a	n/a	n/a	n/a	n/a
64.36999999999999	1.57	delay	n/a	n/a	n/a	n/a	n/a	n/a	n/a	n/a	n/a	n/a	n/a	n/a	n/a	n/a	n/a	n/a
65.93999999999998	2.355	trial	1537.0	Novel	*EITHER*	HI*PITCH	RIGHT*MIDDLE	Correct	35.0	right_middle_finger	blue	vertical	high	constant	red	vertical	high	constant
68.29499999999999	1.57	ITI	n/a	n/a	n/a	n/a	n/a	n/a	n/a	n/a	n/a	n/a	n/a	n/a	n/a	n/a	n/a	n/a
69.86499999999998	2.355	trial	944.0	Novel	*EITHER*	HI*PITCH	RIGHT*MIDDLE	Correct	35.0	right_middle_finger	red	horizontal	high	alarm	red	horizontal	high	alarm
72.21999999999998	1.57	ITI	n/a	n/a	n/a	n/a	n/a	n/a	n/a	n/a	n/a	n/a	n/a	n/a	n/a	n/a	n/a	n/a
73.78999999999998	2.355	trial	1859.0	Novel	*EITHER*	HI*PITCH	RIGHT*MIDDLE	Correct	35.0	right_middle_finger	red	vertical	low	alarm	red	horizontal	high	alarm
76.14499999999998	12.56	delay	n/a	n/a	n/a	n/a	n/a	n/a	n/a	n/a	n/a	n/a	n/a	n/a	n/a	n/a	n/a	n/a
88.70499999999998	3.9250000000000003	encoding	n/a	Novel	NEITHER*	VERTICAL	RIGHT*MIDDLE	n/a	63.0	n/a	n/a	n/a	n/a	n/a	n/a	n/a	n/a	n/a
92.62999999999998	2.355	delay	n/a	n/a	n/a	n/a	n/a	n/a	n/a	n/a	n/a	n/a	n/a	n/a	n/a	n/a	n/a	n/a
94.98499999999999	2.355	trial	1864.0	Novel	NEITHER*	VERTICAL	RIGHT*MIDDLE	Correct	63.0	right_index_finger	red	vertical	low	alarm	red	vertical	low	constant
97.33999999999999	1.57	ITI	n/a	n/a	n/a	n/a	n/a	n/a	n/a	n/a	n/a	n/a	n/a	n/a	n/a	n/a	n/a	n/a
98.90999999999998	2.355	trial	1022.0	Novel	NEITHER*	VERTICAL	RIGHT*MIDDLE	Correct	63.0	right_index_finger	blue	vertical	low	constant	blue	vertical	high	alarm
101.26499999999999	1.57	ITI	n/a	n/a	n/a	n/a	n/a	n/a	n/a	n/a	n/a	n/a	n/a	n/a	n/a	n/a	n/a	n/a
102.83499999999998	2.355	trial	670.0	Novel	NEITHER*	VERTICAL	RIGHT*MIDDLE	Correct	63.0	right_index_finger	red	vertical	low	alarm	blue	vertical	low	constant
105.18999999999998	11.775	delay	n/a	n/a	n/a	n/a	n/a	n/a	n/a	n/a	n/a	n/a	n/a	n/a	n/a	n/a	n/a	n/a
116.96499999999999	3.9250000000000003	encoding	n/a	Novel	NOT*BOTH	**RED***	RIGHT*MIDDLE	n/a	27.0	n/a	n/a	n/a	n/a	n/a	n/a	n/a	n/a	n/a
120.88999999999999	6.28	delay	n/a	n/a	n/a	n/a	n/a	n/a	n/a	n/a	n/a	n/a	n/a	n/a	n/a	n/a	n/a	n/a
127.16999999999999	2.355	trial	518.0	Novel	NOT*BOTH	**RED***	RIGHT*MIDDLE	Correct	27.0	right_index_finger	red	horizontal	low	alarm	red	horizontal	low	alarm
129.52499999999998	1.57	ITI	n/a	n/a	n/a	n/a	n/a	n/a	n/a	n/a	n/a	n/a	n/a	n/a	n/a	n/a	n/a	n/a
131.09499999999997	2.355	trial	1744.0	Novel	NOT*BOTH	**RED***	RIGHT*MIDDLE	Wrong	27.0	right_index_finger	blue	vertical	low	constant	red	vertical	low	constant
133.44999999999996	1.57	ITI	n/a	n/a	n/a	n/a	n/a	n/a	n/a	n/a	n/a	n/a	n/a	n/a	n/a	n/a	n/a	n/a
135.01999999999995	2.355	trial	1774.0	Novel	NOT*BOTH	**RED***	RIGHT*MIDDLE	Correct	27.0	right_middle_finger	blue	vertical	low	alarm	blue	vertical	high	alarm
137.37499999999994	7.85	delay	n/a	n/a	n/a	n/a	n/a	n/a	n/a	n/a	n/a	n/a	n/a	n/a	n/a	n/a	n/a	n/a
145.22499999999994	3.9250000000000003	encoding	n/a	Novel	NOT*BOTH	**RED***	*LEFT*INDEX*	n/a	26.0	n/a	n/a	n/a	n/a	n/a	n/a	n/a	n/a	n/a
149.14999999999995	3.925	delay	n/a	n/a	n/a	n/a	n/a	n/a	n/a	n/a	n/a	n/a	n/a	n/a	n/a	n/a	n/a	n/a
153.07499999999996	2.355	trial	945.0	Novel	NOT*BOTH	**RED***	*LEFT*INDEX*	Correct	26.0	left_middle_finger	red	vertical	low	alarm	red	horizontal	high	alarm
155.42999999999995	1.57	ITI	n/a	n/a	n/a	n/a	n/a	n/a	n/a	n/a	n/a	n/a	n/a	n/a	n/a	n/a	n/a	n/a
156.99999999999994	2.355	trial	1119.0	Novel	NOT*BOTH	**RED***	*LEFT*INDEX*	Correct	26.0	left_middle_finger	red	vertical	high	constant	red	horizontal	low	constant
159.35499999999993	1.57	ITI	n/a	n/a	n/a	n/a	n/a	n/a	n/a	n/a	n/a	n/a	n/a	n/a	n/a	n/a	n/a	n/a
160.92499999999993	2.355	trial	1699.0	Novel	NOT*BOTH	**RED***	*LEFT*INDEX*	Wrong	26.0	left_middle_finger	blue	horizontal	low	constant	red	vertical	low	alarm
163.27999999999992	10.205	delay	n/a	n/a	n/a	n/a	n/a	n/a	n/a	n/a	n/a	n/a	n/a	n/a	n/a	n/a	n/a	n/a
173.48499999999993	3.9250000000000003	encoding	n/a	Novel	NEITHER*	**RED***	LEFT*MIDDLE*	n/a	57.0	n/a	n/a	n/a	n/a	n/a	n/a	n/a	n/a	n/a
177.40999999999994	2.355	delay	n/a	n/a	n/a	n/a	n/a	n/a	n/a	n/a	n/a	n/a	n/a	n/a	n/a	n/a	n/a	n/a
179.76499999999993	2.355	trial	3416.0	Novel	NEITHER*	**RED***	LEFT*MIDDLE*	Correct	57.0	left_index_finger	blue	horizontal	high	constant	red	horizontal	low	constant
182.11999999999992	1.57	ITI	n/a	n/a	n/a	n/a	n/a	n/a	n/a	n/a	n/a	n/a	n/a	n/a	n/a	n/a	n/a	n/a
183.6899999999999	2.355	trial	3411.0	Novel	NEITHER*	**RED***	LEFT*MIDDLE*	Correct	57.0	left_middle_finger	blue	vertical	low	constant	blue	vertical	high	constant
186.0449999999999	1.57	ITI	n/a	n/a	n/a	n/a	n/a	n/a	n/a	n/a	n/a	n/a	n/a	n/a	n/a	n/a	n/a	n/a
187.6149999999999	2.355	trial	1696.0	Novel	NEITHER*	**RED***	LEFT*MIDDLE*	Correct	57.0	left_middle_finger	blue	horizontal	high	constant	blue	vertical	high	constant
189.96999999999989	11.775	delay	n/a	n/a	n/a	n/a	n/a	n/a	n/a	n/a	n/a	n/a	n/a	n/a	n/a	n/a	n/a	n/a
201.7449999999999	3.9250000000000003	encoding	n/a	Novel	**BOTH**	VERTICAL	*LEFT*INDEX*	n/a	14.0	n/a	n/a	n/a	n/a	n/a	n/a	n/a	n/a	n/a
205.6699999999999	3.925	delay	n/a	n/a	n/a	n/a	n/a	n/a	n/a	n/a	n/a	n/a	n/a	n/a	n/a	n/a	n/a	n/a
209.5949999999999	2.355	trial	732.0	Novel	**BOTH**	VERTICAL	*LEFT*INDEX*	Correct	14.0	left_middle_finger	red	horizontal	high	constant	blue	horizontal	high	constant
211.9499999999999	1.57	ITI	n/a	n/a	n/a	n/a	n/a	n/a	n/a	n/a	n/a	n/a	n/a	n/a	n/a	n/a	n/a	n/a
213.5199999999999	2.355	trial	1661.0	Novel	**BOTH**	VERTICAL	*LEFT*INDEX*	Correct	14.0	left_index_finger	red	vertical	low	alarm	blue	vertical	low	constant
215.8749999999999	1.57	ITI	n/a	n/a	n/a	n/a	n/a	n/a	n/a	n/a	n/a	n/a	n/a	n/a	n/a	n/a	n/a	n/a
217.44499999999988	2.355	trial	1753.0	Novel	**BOTH**	VERTICAL	*LEFT*INDEX*	Correct	14.0	left_index_finger	blue	vertical	low	constant	blue	vertical	high	constant
219.79999999999987	10.205	delay	n/a	n/a	n/a	n/a	n/a	n/a	n/a	n/a	n/a	n/a	n/a	n/a	n/a	n/a	n/a	n/a
230.00499999999988	3.9250000000000003	encoding	n/a	Novel	NOT*BOTH	VERTICAL	RIGHT*MIDDLE	n/a	31.0	n/a	n/a	n/a	n/a	n/a	n/a	n/a	n/a	n/a
233.9299999999999	2.355	delay	n/a	n/a	n/a	n/a	n/a	n/a	n/a	n/a	n/a	n/a	n/a	n/a	n/a	n/a	n/a	n/a
236.28499999999988	2.355	trial	2827.0	Novel	NOT*BOTH	VERTICAL	RIGHT*MIDDLE	Wrong	31.0	right_index_finger	blue	vertical	low	alarm	red	horizontal	high	alarm
238.63999999999987	1.57	ITI	n/a	n/a	n/a	n/a	n/a	n/a	n/a	n/a	n/a	n/a	n/a	n/a	n/a	n/a	n/a	n/a
240.20999999999987	2.355	trial	2715.0	Novel	NOT*BOTH	VERTICAL	RIGHT*MIDDLE	Wrong	31.0	right_index_finger	blue	horizontal	low	constant	blue	vertical	low	alarm
242.56499999999986	1.57	ITI	n/a	n/a	n/a	n/a	n/a	n/a	n/a	n/a	n/a	n/a	n/a	n/a	n/a	n/a	n/a	n/a
244.13499999999985	2.355	trial	0.0	Novel	NOT*BOTH	VERTICAL	RIGHT*MIDDLE	No Response	31.0	no_response	red	vertical	high	constant	red	vertical	low	constant
246.48999999999984	11.775	delay	n/a	n/a	n/a	n/a	n/a	n/a	n/a	n/a	n/a	n/a	n/a	n/a	n/a	n/a	n/a	n/a
258.2649999999998	3.9250000000000003	encoding	n/a	Novel	NOT*BOTH	HI*PITCH	*LEFT*INDEX*	n/a	18.0	n/a	n/a	n/a	n/a	n/a	n/a	n/a	n/a	n/a
262.1899999999998	5.495	delay	n/a	n/a	n/a	n/a	n/a	n/a	n/a	n/a	n/a	n/a	n/a	n/a	n/a	n/a	n/a	n/a
267.68499999999983	2.355	trial	2641.0	Novel	NOT*BOTH	HI*PITCH	*LEFT*INDEX*	Wrong	18.0	left_middle_finger	red	vertical	high	alarm	blue	vertical	low	alarm
270.03999999999985	1.57	ITI	n/a	n/a	n/a	n/a	n/a	n/a	n/a	n/a	n/a	n/a	n/a	n/a	n/a	n/a	n/a	n/a
271.60999999999984	2.355	trial	2384.0	Novel	NOT*BOTH	HI*PITCH	*LEFT*INDEX*	Correct	18.0	left_index_finger	blue	vertical	low	constant	blue	horizontal	high	alarm
273.96499999999986	1.57	ITI	n/a	n/a	n/a	n/a	n/a	n/a	n/a	n/a	n/a	n/a	n/a	n/a	n/a	n/a	n/a	n/a
275.53499999999985	2.355	trial	0.0	Novel	NOT*BOTH	HI*PITCH	*LEFT*INDEX*	No Response	18.0	no_response	blue	vertical	low	constant	red	vertical	low	constant
277.8899999999999	8.635	delay	n/a	n/a	n/a	n/a	n/a	n/a	n/a	n/a	n/a	n/a	n/a	n/a	n/a	n/a	n/a	n/a
286.52499999999986	3.9250000000000003	encoding	n/a	Novel	NEITHER*	HI*PITCH	RIGHT*MIDDLE	n/a	51.0	n/a	n/a	n/a	n/a	n/a	n/a	n/a	n/a	n/a
290.4499999999999	3.925	delay	n/a	n/a	n/a	n/a	n/a	n/a	n/a	n/a	n/a	n/a	n/a	n/a	n/a	n/a	n/a	n/a
294.3749999999999	2.355	trial	2230.0	Novel	NEITHER*	HI*PITCH	RIGHT*MIDDLE	Correct	51.0	right_middle_finger	blue	vertical	low	alarm	blue	horizontal	low	constant
296.7299999999999	1.57	ITI	n/a	n/a	n/a	n/a	n/a	n/a	n/a	n/a	n/a	n/a	n/a	n/a	n/a	n/a	n/a	n/a
298.2999999999999	2.355	trial	2507.0	Novel	NEITHER*	HI*PITCH	RIGHT*MIDDLE	Wrong	51.0	right_index_finger	blue	horizontal	low	alarm	blue	vertical	low	constant
300.6549999999999	1.57	ITI	n/a	n/a	n/a	n/a	n/a	n/a	n/a	n/a	n/a	n/a	n/a	n/a	n/a	n/a	n/a	n/a
302.2249999999999	2.355	trial	0.0	Novel	NEITHER*	HI*PITCH	RIGHT*MIDDLE	No Response	51.0	no_response	blue	horizontal	high	alarm	red	horizontal	low	alarm
304.5799999999999	10.205	delay	n/a	n/a	n/a	n/a	n/a	n/a	n/a	n/a	n/a	n/a	n/a	n/a	n/a	n/a	n/a	n/a
314.7849999999999	3.9250000000000003	encoding	n/a	Novel	NEITHER*	CONSTANT	LEFT*MIDDLE*	n/a	53.0	n/a	n/a	n/a	n/a	n/a	n/a	n/a	n/a	n/a
318.7099999999999	1.57	delay	n/a	n/a	n/a	n/a	n/a	n/a	n/a	n/a	n/a	n/a	n/a	n/a	n/a	n/a	n/a	n/a
320.2799999999999	2.355	trial	1201.0	Novel	NEITHER*	CONSTANT	LEFT*MIDDLE*	Correct	53.0	left_index_finger	red	vertical	high	constant	blue	horizontal	high	constant
322.63499999999993	1.57	ITI	n/a	n/a	n/a	n/a	n/a	n/a	n/a	n/a	n/a	n/a	n/a	n/a	n/a	n/a	n/a	n/a
324.2049999999999	2.355	trial	1068.0	Novel	NEITHER*	CONSTANT	LEFT*MIDDLE*	Correct	53.0	left_index_finger	red	vertical	high	constant	red	vertical	low	alarm
326.55999999999995	1.57	ITI	n/a	n/a	n/a	n/a	n/a	n/a	n/a	n/a	n/a	n/a	n/a	n/a	n/a	n/a	n/a	n/a
328.12999999999994	2.355	trial	2014.0	Novel	NEITHER*	CONSTANT	LEFT*MIDDLE*	Correct	53.0	left_index_finger	red	vertical	low	alarm	blue	vertical	low	constant
330.48499999999996	12.56	delay	n/a	n/a	n/a	n/a	n/a	n/a	n/a	n/a	n/a	n/a	n/a	n/a	n/a	n/a	n/a	n/a
343.04499999999996	3.9250000000000003	encoding	n/a	Novel	NOT*BOTH	**RED***	LEFT*MIDDLE*	n/a	25.0	n/a	n/a	n/a	n/a	n/a	n/a	n/a	n/a	n/a
346.96999999999997	4.71	delay	n/a	n/a	n/a	n/a	n/a	n/a	n/a	n/a	n/a	n/a	n/a	n/a	n/a	n/a	n/a	n/a
351.67999999999995	2.355	trial	2833.0	Novel	NOT*BOTH	**RED***	LEFT*MIDDLE*	Wrong	25.0	left_index_finger	blue	vertical	low	alarm	red	vertical	low	constant
354.03499999999997	1.57	ITI	n/a	n/a	n/a	n/a	n/a	n/a	n/a	n/a	n/a	n/a	n/a	n/a	n/a	n/a	n/a	n/a
355.60499999999996	2.355	trial	2607.0	Novel	NOT*BOTH	**RED***	LEFT*MIDDLE*	Correct	25.0	left_index_finger	red	horizontal	high	alarm	red	vertical	low	alarm
357.96	1.57	ITI	n/a	n/a	n/a	n/a	n/a	n/a	n/a	n/a	n/a	n/a	n/a	n/a	n/a	n/a	n/a	n/a
359.53	2.355	trial	2167.0	Novel	NOT*BOTH	**RED***	LEFT*MIDDLE*	Correct	25.0	left_middle_finger	blue	horizontal	low	alarm	red	vertical	high	constant
361.885	9.42	delay	n/a	n/a	n/a	n/a	n/a	n/a	n/a	n/a	n/a	n/a	n/a	n/a	n/a	n/a	n/a	n/a
371.305	3.9250000000000003	encoding	n/a	Novel	**BOTH**	HI*PITCH	LEFT*MIDDLE*	n/a	1.0	n/a	n/a	n/a	n/a	n/a	n/a	n/a	n/a	n/a
375.23	4.71	delay	n/a	n/a	n/a	n/a	n/a	n/a	n/a	n/a	n/a	n/a	n/a	n/a	n/a	n/a	n/a	n/a
379.94	2.355	trial	2043.0	Novel	**BOTH**	HI*PITCH	LEFT*MIDDLE*	Correct	1.0	left_index_finger	red	horizontal	high	alarm	blue	horizontal	low	alarm
382.295	1.57	ITI	n/a	n/a	n/a	n/a	n/a	n/a	n/a	n/a	n/a	n/a	n/a	n/a	n/a	n/a	n/a	n/a
383.865	2.355	trial	1806.0	Novel	**BOTH**	HI*PITCH	LEFT*MIDDLE*	Correct	1.0	left_index_finger	blue	horizontal	low	alarm	red	horizontal	low	constant
386.22	1.57	ITI	n/a	n/a	n/a	n/a	n/a	n/a	n/a	n/a	n/a	n/a	n/a	n/a	n/a	n/a	n/a	n/a
387.79	2.355	trial	2205.0	Novel	**BOTH**	HI*PITCH	LEFT*MIDDLE*	Correct	1.0	left_middle_finger	red	vertical	high	alarm	red	horizontal	high	constant
390.14500000000004	9.42	delay	n/a	n/a	n/a	n/a	n/a	n/a	n/a	n/a	n/a	n/a	n/a	n/a	n/a	n/a	n/a	n/a
399.56500000000005	3.9250000000000003	encoding	n/a	Novel	NOT*BOTH	HI*PITCH	RIGHT*MIDDLE	n/a	19.0	n/a	n/a	n/a	n/a	n/a	n/a	n/a	n/a	n/a
403.49000000000007	2.355	delay	n/a	n/a	n/a	n/a	n/a	n/a	n/a	n/a	n/a	n/a	n/a	n/a	n/a	n/a	n/a	n/a
405.8450000000001	2.355	trial	2742.0	Novel	NOT*BOTH	HI*PITCH	RIGHT*MIDDLE	Wrong	19.0	right_index_finger	blue	vertical	high	alarm	blue	vertical	low	constant
408.2000000000001	1.57	ITI	n/a	n/a	n/a	n/a	n/a	n/a	n/a	n/a	n/a	n/a	n/a	n/a	n/a	n/a	n/a	n/a
409.7700000000001	2.355	trial	1924.0	Novel	NOT*BOTH	HI*PITCH	RIGHT*MIDDLE	Correct	19.0	right_index_finger	red	horizontal	high	alarm	red	horizontal	high	constant
412.1250000000001	1.57	ITI	n/a	n/a	n/a	n/a	n/a	n/a	n/a	n/a	n/a	n/a	n/a	n/a	n/a	n/a	n/a	n/a
413.6950000000001	2.355	trial	1958.0	Novel	NOT*BOTH	HI*PITCH	RIGHT*MIDDLE	Wrong	19.0	right_index_finger	red	vertical	high	constant	red	horizontal	low	alarm
416.0500000000001	11.775	delay	n/a	n/a	n/a	n/a	n/a	n/a	n/a	n/a	n/a	n/a	n/a	n/a	n/a	n/a	n/a	n/a
427.8250000000001	3.9250000000000003	encoding	n/a	Novel	**BOTH**	**RED***	*LEFT*INDEX*	n/a	10.0	n/a	n/a	n/a	n/a	n/a	n/a	n/a	n/a	n/a
431.7500000000001	2.355	delay	n/a	n/a	n/a	n/a	n/a	n/a	n/a	n/a	n/a	n/a	n/a	n/a	n/a	n/a	n/a	n/a
434.10500000000013	2.355	trial	2345.0	Novel	**BOTH**	**RED***	*LEFT*INDEX*	Correct	10.0	left_index_finger	red	vertical	high	constant	red	horizontal	low	constant
436.46000000000015	1.57	ITI	n/a	n/a	n/a	n/a	n/a	n/a	n/a	n/a	n/a	n/a	n/a	n/a	n/a	n/a	n/a	n/a
438.03000000000014	2.355	trial	2182.0	Novel	**BOTH**	**RED***	*LEFT*INDEX*	Correct	10.0	left_index_finger	red	vertical	high	alarm	red	vertical	high	alarm
440.38500000000016	1.57	ITI	n/a	n/a	n/a	n/a	n/a	n/a	n/a	n/a	n/a	n/a	n/a	n/a	n/a	n/a	n/a	n/a
441.95500000000015	2.355	trial	1799.0	Novel	**BOTH**	**RED***	*LEFT*INDEX*	Correct	10.0	left_middle_finger	red	vertical	high	alarm	blue	vertical	high	alarm
444.3100000000002	11.775	delay	n/a	n/a	n/a	n/a	n/a	n/a	n/a	n/a	n/a	n/a	n/a	n/a	n/a	n/a	n/a	n/a
