onset	duration	task_event	rt_in_ms	task_novelty	logic_rule	sensory_rule	motor_rule	performance	task_id	motor_response	stimulus1_color	stimulus1_orientation	stimulus1_pitch	stimulus1_continuity	stimulus2_color	stimulus2_orientation	stimulus2_pitch	stimulus2_continuity
0.0	3.9250000000000003	delay	n/a	n/a	n/a	n/a	n/a	n/a	n/a	n/a	n/a	n/a	n/a	n/a	n/a	n/a	n/a	n/a
3.9250000000000003	3.9250000000000003	encoding	n/a	Novel	*EITHER*	CONSTANT	RIGHT*MIDDLE	n/a	39.0	n/a	n/a	n/a	n/a	n/a	n/a	n/a	n/a	n/a
7.8500000000000005	1.57	delay	n/a	n/a	n/a	n/a	n/a	n/a	n/a	n/a	n/a	n/a	n/a	n/a	n/a	n/a	n/a	n/a
9.42	2.355	trial	2163.0	Novel	*EITHER*	CONSTANT	RIGHT*MIDDLE	Wrong	39.0	right_middle_finger	blue	horizontal	low	alarm	red	vertical	high	alarm
11.775	1.57	ITI	n/a	n/a	n/a	n/a	n/a	n/a	n/a	n/a	n/a	n/a	n/a	n/a	n/a	n/a	n/a	n/a
13.345	2.355	trial	1822.0	Novel	*EITHER*	CONSTANT	RIGHT*MIDDLE	Wrong	39.0	right_middle_finger	blue	vertical	low	alarm	red	vertical	low	alarm
15.700000000000001	1.57	ITI	n/a	n/a	n/a	n/a	n/a	n/a	n/a	n/a	n/a	n/a	n/a	n/a	n/a	n/a	n/a	n/a
17.27	2.355	trial	1730.0	Novel	*EITHER*	CONSTANT	RIGHT*MIDDLE	Wrong	39.0	right_middle_finger	blue	vertical	high	alarm	blue	vertical	low	alarm
19.625	12.56	delay	n/a	n/a	n/a	n/a	n/a	n/a	n/a	n/a	n/a	n/a	n/a	n/a	n/a	n/a	n/a	n/a
32.185	3.9250000000000003	encoding	n/a	Novel	**BOTH**	HI*PITCH	RIGHT*INDEX*	n/a	4.0	n/a	n/a	n/a	n/a	n/a	n/a	n/a	n/a	n/a
36.11	5.495	delay	n/a	n/a	n/a	n/a	n/a	n/a	n/a	n/a	n/a	n/a	n/a	n/a	n/a	n/a	n/a	n/a
41.605	2.355	trial	2506.0	Novel	**BOTH**	HI*PITCH	RIGHT*INDEX*	Correct	4.0	right_middle_finger	red	vertical	low	constant	red	vertical	high	constant
43.959999999999994	1.57	ITI	n/a	n/a	n/a	n/a	n/a	n/a	n/a	n/a	n/a	n/a	n/a	n/a	n/a	n/a	n/a	n/a
45.529999999999994	2.355	trial	1715.0	Novel	**BOTH**	HI*PITCH	RIGHT*INDEX*	Correct	4.0	right_index_finger	blue	horizontal	high	alarm	red	vertical	high	constant
47.88499999999999	1.57	ITI	n/a	n/a	n/a	n/a	n/a	n/a	n/a	n/a	n/a	n/a	n/a	n/a	n/a	n/a	n/a	n/a
49.45499999999999	2.355	trial	1728.0	Novel	**BOTH**	HI*PITCH	RIGHT*INDEX*	Correct	4.0	right_index_finger	red	horizontal	high	alarm	red	horizontal	high	alarm
51.80999999999999	8.635	delay	n/a	n/a	n/a	n/a	n/a	n/a	n/a	n/a	n/a	n/a	n/a	n/a	n/a	n/a	n/a	n/a
60.444999999999986	3.9250000000000003	encoding	n/a	Prac	NEITHER*	VERTICAL	RIGHT*INDEX*	n/a	64.0	n/a	n/a	n/a	n/a	n/a	n/a	n/a	n/a	n/a
64.36999999999999	6.28	delay	n/a	n/a	n/a	n/a	n/a	n/a	n/a	n/a	n/a	n/a	n/a	n/a	n/a	n/a	n/a	n/a
70.64999999999999	2.355	trial	2242.0	Prac	NEITHER*	VERTICAL	RIGHT*INDEX*	Wrong Hand	64.0	left_index_finger	blue	horizontal	low	alarm	blue	horizontal	high	constant
73.005	1.57	ITI	n/a	n/a	n/a	n/a	n/a	n/a	n/a	n/a	n/a	n/a	n/a	n/a	n/a	n/a	n/a	n/a
74.57499999999999	2.355	trial	1613.0	Prac	NEITHER*	VERTICAL	RIGHT*INDEX*	Wrong Hand	64.0	left_middle_finger	red	vertical	high	alarm	blue	vertical	low	constant
76.92999999999999	1.57	ITI	n/a	n/a	n/a	n/a	n/a	n/a	n/a	n/a	n/a	n/a	n/a	n/a	n/a	n/a	n/a	n/a
78.49999999999999	2.355	trial	1780.0	Prac	NEITHER*	VERTICAL	RIGHT*INDEX*	Wrong Hand	64.0	left_middle_finger	blue	vertical	low	alarm	blue	horizontal	low	constant
80.85499999999999	7.85	delay	n/a	n/a	n/a	n/a	n/a	n/a	n/a	n/a	n/a	n/a	n/a	n/a	n/a	n/a	n/a	n/a
88.70499999999998	3.9250000000000003	encoding	n/a	Novel	**BOTH**	CONSTANT	RIGHT*INDEX*	n/a	8.0	n/a	n/a	n/a	n/a	n/a	n/a	n/a	n/a	n/a
92.62999999999998	2.355	delay	n/a	n/a	n/a	n/a	n/a	n/a	n/a	n/a	n/a	n/a	n/a	n/a	n/a	n/a	n/a	n/a
94.98499999999999	2.355	trial	1938.0	Novel	**BOTH**	CONSTANT	RIGHT*INDEX*	Correct	8.0	right_index_finger	red	vertical	low	constant	red	horizontal	high	constant
97.33999999999999	1.57	ITI	n/a	n/a	n/a	n/a	n/a	n/a	n/a	n/a	n/a	n/a	n/a	n/a	n/a	n/a	n/a	n/a
98.90999999999998	2.355	trial	2090.0	Novel	**BOTH**	CONSTANT	RIGHT*INDEX*	Correct	8.0	right_middle_finger	red	vertical	low	constant	blue	horizontal	high	alarm
101.26499999999999	1.57	ITI	n/a	n/a	n/a	n/a	n/a	n/a	n/a	n/a	n/a	n/a	n/a	n/a	n/a	n/a	n/a	n/a
102.83499999999998	2.355	trial	1982.0	Novel	**BOTH**	CONSTANT	RIGHT*INDEX*	Wrong	8.0	right_index_finger	red	vertical	low	alarm	red	vertical	high	constant
105.18999999999998	11.775	delay	n/a	n/a	n/a	n/a	n/a	n/a	n/a	n/a	n/a	n/a	n/a	n/a	n/a	n/a	n/a	n/a
116.96499999999999	3.9250000000000003	encoding	n/a	Novel	NEITHER*	HI*PITCH	RIGHT*INDEX*	n/a	52.0	n/a	n/a	n/a	n/a	n/a	n/a	n/a	n/a	n/a
120.88999999999999	3.925	delay	n/a	n/a	n/a	n/a	n/a	n/a	n/a	n/a	n/a	n/a	n/a	n/a	n/a	n/a	n/a	n/a
124.81499999999998	2.355	trial	1912.0	Novel	NEITHER*	HI*PITCH	RIGHT*INDEX*	Wrong	52.0	right_index_finger	blue	horizontal	low	alarm	red	horizontal	high	constant
127.16999999999999	1.57	ITI	n/a	n/a	n/a	n/a	n/a	n/a	n/a	n/a	n/a	n/a	n/a	n/a	n/a	n/a	n/a	n/a
128.73999999999998	2.355	trial	1772.0	Novel	NEITHER*	HI*PITCH	RIGHT*INDEX*	Wrong	52.0	right_middle_finger	red	horizontal	low	alarm	red	horizontal	low	alarm
131.09499999999997	1.57	ITI	n/a	n/a	n/a	n/a	n/a	n/a	n/a	n/a	n/a	n/a	n/a	n/a	n/a	n/a	n/a	n/a
132.66499999999996	2.355	trial	1729.0	Novel	NEITHER*	HI*PITCH	RIGHT*INDEX*	Wrong	52.0	right_middle_finger	blue	vertical	low	alarm	blue	horizontal	low	alarm
135.01999999999995	10.205	delay	n/a	n/a	n/a	n/a	n/a	n/a	n/a	n/a	n/a	n/a	n/a	n/a	n/a	n/a	n/a	n/a
145.22499999999997	3.9250000000000003	encoding	n/a	Novel	*EITHER*	VERTICAL	RIGHT*INDEX*	n/a	48.0	n/a	n/a	n/a	n/a	n/a	n/a	n/a	n/a	n/a
149.14999999999998	3.925	delay	n/a	n/a	n/a	n/a	n/a	n/a	n/a	n/a	n/a	n/a	n/a	n/a	n/a	n/a	n/a	n/a
153.075	2.355	trial	1722.0	Novel	*EITHER*	VERTICAL	RIGHT*INDEX*	Correct	48.0	right_index_finger	red	horizontal	high	constant	red	vertical	low	constant
155.42999999999998	1.57	ITI	n/a	n/a	n/a	n/a	n/a	n/a	n/a	n/a	n/a	n/a	n/a	n/a	n/a	n/a	n/a	n/a
156.99999999999997	2.355	trial	1884.0	Novel	*EITHER*	VERTICAL	RIGHT*INDEX*	Correct	48.0	right_middle_finger	blue	horizontal	low	constant	red	horizontal	low	constant
159.35499999999996	1.57	ITI	n/a	n/a	n/a	n/a	n/a	n/a	n/a	n/a	n/a	n/a	n/a	n/a	n/a	n/a	n/a	n/a
160.92499999999995	2.355	trial	1771.0	Novel	*EITHER*	VERTICAL	RIGHT*INDEX*	Correct	48.0	right_index_finger	blue	horizontal	low	constant	blue	vertical	high	constant
163.27999999999994	10.205	delay	n/a	n/a	n/a	n/a	n/a	n/a	n/a	n/a	n/a	n/a	n/a	n/a	n/a	n/a	n/a	n/a
173.48499999999996	3.9250000000000003	encoding	n/a	Novel	*EITHER*	CONSTANT	*LEFT*INDEX*	n/a	38.0	n/a	n/a	n/a	n/a	n/a	n/a	n/a	n/a	n/a
177.40999999999997	1.57	delay	n/a	n/a	n/a	n/a	n/a	n/a	n/a	n/a	n/a	n/a	n/a	n/a	n/a	n/a	n/a	n/a
178.97999999999996	2.355	trial	2295.0	Novel	*EITHER*	CONSTANT	*LEFT*INDEX*	Correct	38.0	left_middle_finger	blue	vertical	low	alarm	red	horizontal	high	alarm
181.33499999999995	1.57	ITI	n/a	n/a	n/a	n/a	n/a	n/a	n/a	n/a	n/a	n/a	n/a	n/a	n/a	n/a	n/a	n/a
182.90499999999994	2.355	trial	1507.0	Novel	*EITHER*	CONSTANT	*LEFT*INDEX*	Correct	38.0	left_index_finger	red	horizontal	high	constant	red	vertical	low	alarm
185.25999999999993	1.57	ITI	n/a	n/a	n/a	n/a	n/a	n/a	n/a	n/a	n/a	n/a	n/a	n/a	n/a	n/a	n/a	n/a
186.82999999999993	2.355	trial	1534.0	Novel	*EITHER*	CONSTANT	*LEFT*INDEX*	Correct	38.0	left_index_finger	blue	horizontal	high	constant	blue	horizontal	low	constant
189.18499999999992	12.56	delay	n/a	n/a	n/a	n/a	n/a	n/a	n/a	n/a	n/a	n/a	n/a	n/a	n/a	n/a	n/a	n/a
201.74499999999992	3.9250000000000003	encoding	n/a	Novel	**BOTH**	VERTICAL	RIGHT*MIDDLE	n/a	15.0	n/a	n/a	n/a	n/a	n/a	n/a	n/a	n/a	n/a
205.66999999999993	2.355	delay	n/a	n/a	n/a	n/a	n/a	n/a	n/a	n/a	n/a	n/a	n/a	n/a	n/a	n/a	n/a	n/a
208.02499999999992	2.355	trial	1721.0	Novel	**BOTH**	VERTICAL	RIGHT*MIDDLE	Correct	15.0	right_index_finger	blue	horizontal	low	constant	red	horizontal	low	constant
210.3799999999999	1.57	ITI	n/a	n/a	n/a	n/a	n/a	n/a	n/a	n/a	n/a	n/a	n/a	n/a	n/a	n/a	n/a	n/a
211.9499999999999	2.355	trial	1638.0	Novel	**BOTH**	VERTICAL	RIGHT*MIDDLE	Correct	15.0	right_index_finger	blue	horizontal	high	alarm	blue	horizontal	low	constant
214.3049999999999	1.57	ITI	n/a	n/a	n/a	n/a	n/a	n/a	n/a	n/a	n/a	n/a	n/a	n/a	n/a	n/a	n/a	n/a
215.8749999999999	2.355	trial	1662.0	Novel	**BOTH**	VERTICAL	RIGHT*MIDDLE	Correct	15.0	right_middle_finger	blue	vertical	low	alarm	blue	vertical	high	alarm
218.22999999999988	11.775	delay	n/a	n/a	n/a	n/a	n/a	n/a	n/a	n/a	n/a	n/a	n/a	n/a	n/a	n/a	n/a	n/a
230.00499999999988	3.9250000000000003	encoding	n/a	Novel	*EITHER*	VERTICAL	*LEFT*INDEX*	n/a	46.0	n/a	n/a	n/a	n/a	n/a	n/a	n/a	n/a	n/a
233.9299999999999	1.57	delay	n/a	n/a	n/a	n/a	n/a	n/a	n/a	n/a	n/a	n/a	n/a	n/a	n/a	n/a	n/a	n/a
235.4999999999999	2.355	trial	1727.0	Novel	*EITHER*	VERTICAL	*LEFT*INDEX*	Correct	46.0	left_index_finger	blue	horizontal	low	alarm	red	vertical	high	alarm
237.85499999999988	1.57	ITI	n/a	n/a	n/a	n/a	n/a	n/a	n/a	n/a	n/a	n/a	n/a	n/a	n/a	n/a	n/a	n/a
239.42499999999987	2.355	trial	1642.0	Novel	*EITHER*	VERTICAL	*LEFT*INDEX*	Correct	46.0	left_middle_finger	blue	horizontal	high	constant	blue	horizontal	low	constant
241.77999999999986	1.57	ITI	n/a	n/a	n/a	n/a	n/a	n/a	n/a	n/a	n/a	n/a	n/a	n/a	n/a	n/a	n/a	n/a
243.34999999999985	2.355	trial	1769.0	Novel	*EITHER*	VERTICAL	*LEFT*INDEX*	Correct	46.0	left_middle_finger	blue	horizontal	low	alarm	red	horizontal	high	alarm
245.70499999999984	12.56	delay	n/a	n/a	n/a	n/a	n/a	n/a	n/a	n/a	n/a	n/a	n/a	n/a	n/a	n/a	n/a	n/a
258.2649999999998	3.9250000000000003	encoding	n/a	Novel	*EITHER*	HI*PITCH	*LEFT*INDEX*	n/a	34.0	n/a	n/a	n/a	n/a	n/a	n/a	n/a	n/a	n/a
262.1899999999998	3.925	delay	n/a	n/a	n/a	n/a	n/a	n/a	n/a	n/a	n/a	n/a	n/a	n/a	n/a	n/a	n/a	n/a
266.11499999999984	2.355	trial	2749.0	Novel	*EITHER*	HI*PITCH	*LEFT*INDEX*	Correct	34.0	left_index_finger	red	horizontal	low	alarm	red	horizontal	high	constant
268.46999999999986	1.57	ITI	n/a	n/a	n/a	n/a	n/a	n/a	n/a	n/a	n/a	n/a	n/a	n/a	n/a	n/a	n/a	n/a
270.03999999999985	2.355	trial	2161.0	Novel	*EITHER*	HI*PITCH	*LEFT*INDEX*	Correct	34.0	left_index_finger	blue	vertical	high	alarm	blue	horizontal	low	alarm
272.39499999999987	1.57	ITI	n/a	n/a	n/a	n/a	n/a	n/a	n/a	n/a	n/a	n/a	n/a	n/a	n/a	n/a	n/a	n/a
273.96499999999986	2.355	trial	1566.0	Novel	*EITHER*	HI*PITCH	*LEFT*INDEX*	Correct	34.0	left_middle_finger	red	vertical	low	alarm	red	vertical	low	alarm
276.3199999999999	10.205	delay	n/a	n/a	n/a	n/a	n/a	n/a	n/a	n/a	n/a	n/a	n/a	n/a	n/a	n/a	n/a	n/a
286.52499999999986	3.9250000000000003	encoding	n/a	Novel	NEITHER*	CONSTANT	RIGHT*MIDDLE	n/a	55.0	n/a	n/a	n/a	n/a	n/a	n/a	n/a	n/a	n/a
290.4499999999999	5.495	delay	n/a	n/a	n/a	n/a	n/a	n/a	n/a	n/a	n/a	n/a	n/a	n/a	n/a	n/a	n/a	n/a
295.9449999999999	2.355	trial	2622.0	Novel	NEITHER*	CONSTANT	RIGHT*MIDDLE	Correct	55.0	right_index_finger	blue	horizontal	low	constant	red	horizontal	high	constant
298.2999999999999	1.57	ITI	n/a	n/a	n/a	n/a	n/a	n/a	n/a	n/a	n/a	n/a	n/a	n/a	n/a	n/a	n/a	n/a
299.8699999999999	2.355	trial	2690.0	Novel	NEITHER*	CONSTANT	RIGHT*MIDDLE	Correct	55.0	right_index_finger	blue	horizontal	high	constant	red	horizontal	high	alarm
302.2249999999999	1.57	ITI	n/a	n/a	n/a	n/a	n/a	n/a	n/a	n/a	n/a	n/a	n/a	n/a	n/a	n/a	n/a	n/a
303.7949999999999	2.355	trial	1857.0	Novel	NEITHER*	CONSTANT	RIGHT*MIDDLE	Correct	55.0	right_middle_finger	blue	vertical	high	alarm	blue	vertical	high	alarm
306.1499999999999	8.635	delay	n/a	n/a	n/a	n/a	n/a	n/a	n/a	n/a	n/a	n/a	n/a	n/a	n/a	n/a	n/a	n/a
314.7849999999999	3.9250000000000003	encoding	n/a	Novel	NOT*BOTH	**RED***	RIGHT*MIDDLE	n/a	27.0	n/a	n/a	n/a	n/a	n/a	n/a	n/a	n/a	n/a
318.7099999999999	6.28	delay	n/a	n/a	n/a	n/a	n/a	n/a	n/a	n/a	n/a	n/a	n/a	n/a	n/a	n/a	n/a	n/a
324.9899999999999	2.355	trial	2786.0	Novel	NOT*BOTH	**RED***	RIGHT*MIDDLE	Correct	27.0	right_index_finger	red	vertical	high	constant	red	horizontal	high	alarm
327.3449999999999	1.57	ITI	n/a	n/a	n/a	n/a	n/a	n/a	n/a	n/a	n/a	n/a	n/a	n/a	n/a	n/a	n/a	n/a
328.9149999999999	2.355	trial	1941.0	Novel	NOT*BOTH	**RED***	RIGHT*MIDDLE	Correct	27.0	right_index_finger	red	horizontal	high	alarm	red	vertical	high	constant
331.2699999999999	1.57	ITI	n/a	n/a	n/a	n/a	n/a	n/a	n/a	n/a	n/a	n/a	n/a	n/a	n/a	n/a	n/a	n/a
332.8399999999999	2.355	trial	1727.0	Novel	NOT*BOTH	**RED***	RIGHT*MIDDLE	Correct	27.0	right_index_finger	red	horizontal	high	alarm	red	vertical	low	constant
335.19499999999994	7.85	delay	n/a	n/a	n/a	n/a	n/a	n/a	n/a	n/a	n/a	n/a	n/a	n/a	n/a	n/a	n/a	n/a
343.04499999999996	3.9250000000000003	encoding	n/a	Novel	**BOTH**	HI*PITCH	*LEFT*INDEX*	n/a	2.0	n/a	n/a	n/a	n/a	n/a	n/a	n/a	n/a	n/a
346.96999999999997	3.925	delay	n/a	n/a	n/a	n/a	n/a	n/a	n/a	n/a	n/a	n/a	n/a	n/a	n/a	n/a	n/a	n/a
350.895	2.355	trial	2604.0	Novel	**BOTH**	HI*PITCH	*LEFT*INDEX*	Correct	2.0	left_middle_finger	red	horizontal	high	constant	blue	vertical	low	alarm
353.25	1.57	ITI	n/a	n/a	n/a	n/a	n/a	n/a	n/a	n/a	n/a	n/a	n/a	n/a	n/a	n/a	n/a	n/a
354.82	2.355	trial	1936.0	Novel	**BOTH**	HI*PITCH	*LEFT*INDEX*	Correct	2.0	left_middle_finger	blue	horizontal	low	constant	blue	vertical	high	alarm
357.175	1.57	ITI	n/a	n/a	n/a	n/a	n/a	n/a	n/a	n/a	n/a	n/a	n/a	n/a	n/a	n/a	n/a	n/a
358.745	2.355	trial	2122.0	Novel	**BOTH**	HI*PITCH	*LEFT*INDEX*	Correct	2.0	left_index_finger	red	vertical	high	constant	red	horizontal	high	alarm
361.1	10.205	delay	n/a	n/a	n/a	n/a	n/a	n/a	n/a	n/a	n/a	n/a	n/a	n/a	n/a	n/a	n/a	n/a
371.305	3.9250000000000003	encoding	n/a	Novel	NOT*BOTH	**RED***	LEFT*MIDDLE*	n/a	25.0	n/a	n/a	n/a	n/a	n/a	n/a	n/a	n/a	n/a
375.23	3.925	delay	n/a	n/a	n/a	n/a	n/a	n/a	n/a	n/a	n/a	n/a	n/a	n/a	n/a	n/a	n/a	n/a
379.15500000000003	2.355	trial	2771.0	Novel	NOT*BOTH	**RED***	LEFT*MIDDLE*	Correct	25.0	left_index_finger	red	horizontal	high	constant	red	vertical	high	alarm
381.51000000000005	1.57	ITI	n/a	n/a	n/a	n/a	n/a	n/a	n/a	n/a	n/a	n/a	n/a	n/a	n/a	n/a	n/a	n/a
383.08000000000004	2.355	trial	1967.0	Novel	NOT*BOTH	**RED***	LEFT*MIDDLE*	Correct	25.0	left_index_finger	red	vertical	high	constant	red	vertical	low	alarm
385.43500000000006	1.57	ITI	n/a	n/a	n/a	n/a	n/a	n/a	n/a	n/a	n/a	n/a	n/a	n/a	n/a	n/a	n/a	n/a
387.00500000000005	2.355	trial	2008.0	Novel	NOT*BOTH	**RED***	LEFT*MIDDLE*	Correct	25.0	left_index_finger	red	vertical	low	constant	red	horizontal	high	alarm
389.36000000000007	10.205	delay	n/a	n/a	n/a	n/a	n/a	n/a	n/a	n/a	n/a	n/a	n/a	n/a	n/a	n/a	n/a	n/a
399.56500000000005	3.9250000000000003	encoding	n/a	Novel	*EITHER*	HI*PITCH	LEFT*MIDDLE*	n/a	33.0	n/a	n/a	n/a	n/a	n/a	n/a	n/a	n/a	n/a
403.49000000000007	2.355	delay	n/a	n/a	n/a	n/a	n/a	n/a	n/a	n/a	n/a	n/a	n/a	n/a	n/a	n/a	n/a	n/a
405.8450000000001	2.355	trial	1874.0	Novel	*EITHER*	HI*PITCH	LEFT*MIDDLE*	Correct	33.0	left_middle_finger	blue	horizontal	low	alarm	blue	vertical	high	constant
408.2000000000001	1.57	ITI	n/a	n/a	n/a	n/a	n/a	n/a	n/a	n/a	n/a	n/a	n/a	n/a	n/a	n/a	n/a	n/a
409.7700000000001	2.355	trial	1781.0	Novel	*EITHER*	HI*PITCH	LEFT*MIDDLE*	Correct	33.0	left_index_finger	red	vertical	low	alarm	red	vertical	low	constant
412.1250000000001	1.57	ITI	n/a	n/a	n/a	n/a	n/a	n/a	n/a	n/a	n/a	n/a	n/a	n/a	n/a	n/a	n/a	n/a
413.6950000000001	2.355	trial	0.0	Novel	*EITHER*	HI*PITCH	LEFT*MIDDLE*	No Response	33.0	no_response	blue	vertical	high	alarm	blue	horizontal	high	constant
416.0500000000001	11.775	delay	n/a	n/a	n/a	n/a	n/a	n/a	n/a	n/a	n/a	n/a	n/a	n/a	n/a	n/a	n/a	n/a
427.8250000000001	3.9250000000000003	encoding	n/a	Novel	NEITHER*	VERTICAL	RIGHT*MIDDLE	n/a	63.0	n/a	n/a	n/a	n/a	n/a	n/a	n/a	n/a	n/a
431.7500000000001	6.28	delay	n/a	n/a	n/a	n/a	n/a	n/a	n/a	n/a	n/a	n/a	n/a	n/a	n/a	n/a	n/a	n/a
438.0300000000001	2.355	trial	1984.0	Novel	NEITHER*	VERTICAL	RIGHT*MIDDLE	Correct	63.0	right_index_finger	red	vertical	low	constant	blue	vertical	low	constant
440.3850000000001	1.57	ITI	n/a	n/a	n/a	n/a	n/a	n/a	n/a	n/a	n/a	n/a	n/a	n/a	n/a	n/a	n/a	n/a
441.9550000000001	2.355	trial	1653.0	Novel	NEITHER*	VERTICAL	RIGHT*MIDDLE	Correct	63.0	right_middle_finger	blue	horizontal	high	constant	blue	horizontal	low	alarm
444.3100000000001	1.57	ITI	n/a	n/a	n/a	n/a	n/a	n/a	n/a	n/a	n/a	n/a	n/a	n/a	n/a	n/a	n/a	n/a
445.8800000000001	2.355	trial	2177.0	Novel	NEITHER*	VERTICAL	RIGHT*MIDDLE	Correct	63.0	right_index_finger	red	vertical	high	constant	blue	vertical	high	constant
448.2350000000001	7.85	delay	n/a	n/a	n/a	n/a	n/a	n/a	n/a	n/a	n/a	n/a	n/a	n/a	n/a	n/a	n/a	n/a
