onset	duration	task_event	rt_in_ms	task_novelty	logic_rule	sensory_rule	motor_rule	performance	task_id	motor_response	stimulus1_color	stimulus1_orientation	stimulus1_pitch	stimulus1_continuity	stimulus2_color	stimulus2_orientation	stimulus2_pitch	stimulus2_continuity
0.0	3.9250000000000003	delay	n/a	n/a	n/a	n/a	n/a	n/a	n/a	n/a	n/a	n/a	n/a	n/a	n/a	n/a	n/a	n/a
3.9250000000000003	3.9250000000000003	encoding	n/a	Novel	NEITHER*	VERTICAL	*LEFT*INDEX*	n/a	62.0	n/a	n/a	n/a	n/a	n/a	n/a	n/a	n/a	n/a
7.8500000000000005	3.14	delay	n/a	n/a	n/a	n/a	n/a	n/a	n/a	n/a	n/a	n/a	n/a	n/a	n/a	n/a	n/a	n/a
10.99	2.355	trial	1765.0	Novel	NEITHER*	VERTICAL	*LEFT*INDEX*	Correct	62.0	left_index_finger	blue	horizontal	high	alarm	red	horizontal	low	constant
13.345	1.57	ITI	n/a	n/a	n/a	n/a	n/a	n/a	n/a	n/a	n/a	n/a	n/a	n/a	n/a	n/a	n/a	n/a
14.915000000000001	2.355	trial	1840.0	Novel	NEITHER*	VERTICAL	*LEFT*INDEX*	Correct	62.0	left_index_finger	red	horizontal	low	constant	blue	horizontal	low	alarm
17.27	1.57	ITI	n/a	n/a	n/a	n/a	n/a	n/a	n/a	n/a	n/a	n/a	n/a	n/a	n/a	n/a	n/a	n/a
18.84	2.355	trial	1724.0	Novel	NEITHER*	VERTICAL	*LEFT*INDEX*	Correct	62.0	left_middle_finger	blue	vertical	high	constant	blue	horizontal	low	alarm
21.195	10.99	delay	n/a	n/a	n/a	n/a	n/a	n/a	n/a	n/a	n/a	n/a	n/a	n/a	n/a	n/a	n/a	n/a
32.185	3.9250000000000003	encoding	n/a	Novel	NEITHER*	**RED***	LEFT*MIDDLE*	n/a	57.0	n/a	n/a	n/a	n/a	n/a	n/a	n/a	n/a	n/a
36.11	4.71	delay	n/a	n/a	n/a	n/a	n/a	n/a	n/a	n/a	n/a	n/a	n/a	n/a	n/a	n/a	n/a	n/a
40.82	2.355	trial	2844.0	Novel	NEITHER*	**RED***	LEFT*MIDDLE*	Correct	57.0	left_middle_finger	blue	vertical	low	alarm	blue	horizontal	low	alarm
43.175	1.57	ITI	n/a	n/a	n/a	n/a	n/a	n/a	n/a	n/a	n/a	n/a	n/a	n/a	n/a	n/a	n/a	n/a
44.745	2.355	trial	2214.0	Novel	NEITHER*	**RED***	LEFT*MIDDLE*	Correct	57.0	left_middle_finger	blue	vertical	high	alarm	blue	horizontal	low	constant
47.099999999999994	1.57	ITI	n/a	n/a	n/a	n/a	n/a	n/a	n/a	n/a	n/a	n/a	n/a	n/a	n/a	n/a	n/a	n/a
48.669999999999995	2.355	trial	675.0	Novel	NEITHER*	**RED***	LEFT*MIDDLE*	Correct	57.0	left_index_finger	red	vertical	low	constant	blue	horizontal	high	alarm
51.02499999999999	9.42	delay	n/a	n/a	n/a	n/a	n/a	n/a	n/a	n/a	n/a	n/a	n/a	n/a	n/a	n/a	n/a	n/a
60.44499999999999	3.9250000000000003	encoding	n/a	Novel	NOT*BOTH	VERTICAL	LEFT*MIDDLE*	n/a	29.0	n/a	n/a	n/a	n/a	n/a	n/a	n/a	n/a	n/a
64.36999999999999	6.28	delay	n/a	n/a	n/a	n/a	n/a	n/a	n/a	n/a	n/a	n/a	n/a	n/a	n/a	n/a	n/a	n/a
70.64999999999999	2.355	trial	1880.0	Novel	NOT*BOTH	VERTICAL	LEFT*MIDDLE*	Wrong	29.0	left_index_finger	red	horizontal	high	alarm	blue	vertical	low	constant
73.005	1.57	ITI	n/a	n/a	n/a	n/a	n/a	n/a	n/a	n/a	n/a	n/a	n/a	n/a	n/a	n/a	n/a	n/a
74.57499999999999	2.355	trial	2358.0	Novel	NOT*BOTH	VERTICAL	LEFT*MIDDLE*	Correct	29.0	left_middle_finger	blue	horizontal	low	alarm	red	horizontal	low	alarm
76.92999999999999	1.57	ITI	n/a	n/a	n/a	n/a	n/a	n/a	n/a	n/a	n/a	n/a	n/a	n/a	n/a	n/a	n/a	n/a
78.49999999999999	2.355	trial	1563.0	Novel	NOT*BOTH	VERTICAL	LEFT*MIDDLE*	Correct	29.0	left_middle_finger	red	horizontal	high	alarm	red	horizontal	high	constant
80.85499999999999	7.85	delay	n/a	n/a	n/a	n/a	n/a	n/a	n/a	n/a	n/a	n/a	n/a	n/a	n/a	n/a	n/a	n/a
88.70499999999998	3.9250000000000003	encoding	n/a	Novel	NOT*BOTH	HI*PITCH	RIGHT*MIDDLE	n/a	19.0	n/a	n/a	n/a	n/a	n/a	n/a	n/a	n/a	n/a
92.62999999999998	4.71	delay	n/a	n/a	n/a	n/a	n/a	n/a	n/a	n/a	n/a	n/a	n/a	n/a	n/a	n/a	n/a	n/a
97.33999999999997	2.355	trial	2206.0	Novel	NOT*BOTH	HI*PITCH	RIGHT*MIDDLE	Correct	19.0	right_index_finger	red	vertical	high	alarm	red	horizontal	high	constant
99.69499999999998	1.57	ITI	n/a	n/a	n/a	n/a	n/a	n/a	n/a	n/a	n/a	n/a	n/a	n/a	n/a	n/a	n/a	n/a
101.26499999999997	2.355	trial	1661.0	Novel	NOT*BOTH	HI*PITCH	RIGHT*MIDDLE	Wrong	19.0	right_index_finger	red	horizontal	low	constant	red	vertical	high	constant
103.61999999999998	1.57	ITI	n/a	n/a	n/a	n/a	n/a	n/a	n/a	n/a	n/a	n/a	n/a	n/a	n/a	n/a	n/a	n/a
105.18999999999997	2.355	trial	1093.0	Novel	NOT*BOTH	HI*PITCH	RIGHT*MIDDLE	Correct	19.0	right_index_finger	red	horizontal	high	constant	blue	horizontal	high	alarm
107.54499999999997	9.42	delay	n/a	n/a	n/a	n/a	n/a	n/a	n/a	n/a	n/a	n/a	n/a	n/a	n/a	n/a	n/a	n/a
116.96499999999997	3.9250000000000003	encoding	n/a	Novel	**BOTH**	**RED***	RIGHT*MIDDLE	n/a	11.0	n/a	n/a	n/a	n/a	n/a	n/a	n/a	n/a	n/a
120.88999999999997	4.71	delay	n/a	n/a	n/a	n/a	n/a	n/a	n/a	n/a	n/a	n/a	n/a	n/a	n/a	n/a	n/a	n/a
125.59999999999997	2.355	trial	1857.0	Novel	**BOTH**	**RED***	RIGHT*MIDDLE	Correct	11.0	right_middle_finger	red	horizontal	low	constant	red	horizontal	low	alarm
127.95499999999997	1.57	ITI	n/a	n/a	n/a	n/a	n/a	n/a	n/a	n/a	n/a	n/a	n/a	n/a	n/a	n/a	n/a	n/a
129.52499999999998	2.355	trial	1886.0	Novel	**BOTH**	**RED***	RIGHT*MIDDLE	Correct	11.0	right_index_finger	blue	vertical	high	alarm	red	vertical	low	constant
131.87999999999997	1.57	ITI	n/a	n/a	n/a	n/a	n/a	n/a	n/a	n/a	n/a	n/a	n/a	n/a	n/a	n/a	n/a	n/a
133.44999999999996	2.355	trial	1789.0	Novel	**BOTH**	**RED***	RIGHT*MIDDLE	Correct	11.0	right_index_finger	red	vertical	low	constant	blue	vertical	high	constant
135.80499999999995	9.42	delay	n/a	n/a	n/a	n/a	n/a	n/a	n/a	n/a	n/a	n/a	n/a	n/a	n/a	n/a	n/a	n/a
145.22499999999994	3.9250000000000003	encoding	n/a	Novel	**BOTH**	VERTICAL	*LEFT*INDEX*	n/a	14.0	n/a	n/a	n/a	n/a	n/a	n/a	n/a	n/a	n/a
149.14999999999995	3.925	delay	n/a	n/a	n/a	n/a	n/a	n/a	n/a	n/a	n/a	n/a	n/a	n/a	n/a	n/a	n/a	n/a
153.07499999999996	2.355	trial	2220.0	Novel	**BOTH**	VERTICAL	*LEFT*INDEX*	Correct	14.0	left_middle_finger	blue	vertical	high	constant	blue	horizontal	high	alarm
155.42999999999995	1.57	ITI	n/a	n/a	n/a	n/a	n/a	n/a	n/a	n/a	n/a	n/a	n/a	n/a	n/a	n/a	n/a	n/a
156.99999999999994	2.355	trial	1699.0	Novel	**BOTH**	VERTICAL	*LEFT*INDEX*	Correct	14.0	left_index_finger	blue	vertical	low	constant	blue	vertical	high	constant
159.35499999999993	1.57	ITI	n/a	n/a	n/a	n/a	n/a	n/a	n/a	n/a	n/a	n/a	n/a	n/a	n/a	n/a	n/a	n/a
160.92499999999993	2.355	trial	1666.0	Novel	**BOTH**	VERTICAL	*LEFT*INDEX*	Correct	14.0	left_middle_finger	red	vertical	high	alarm	red	horizontal	low	constant
163.27999999999992	10.205	delay	n/a	n/a	n/a	n/a	n/a	n/a	n/a	n/a	n/a	n/a	n/a	n/a	n/a	n/a	n/a	n/a
173.48499999999993	3.9250000000000003	encoding	n/a	Novel	**BOTH**	HI*PITCH	RIGHT*INDEX*	n/a	4.0	n/a	n/a	n/a	n/a	n/a	n/a	n/a	n/a	n/a
177.40999999999994	5.495	delay	n/a	n/a	n/a	n/a	n/a	n/a	n/a	n/a	n/a	n/a	n/a	n/a	n/a	n/a	n/a	n/a
182.90499999999994	2.355	trial	2788.0	Novel	**BOTH**	HI*PITCH	RIGHT*INDEX*	Correct	4.0	right_middle_finger	blue	vertical	low	constant	red	vertical	low	alarm
185.25999999999993	1.57	ITI	n/a	n/a	n/a	n/a	n/a	n/a	n/a	n/a	n/a	n/a	n/a	n/a	n/a	n/a	n/a	n/a
186.82999999999993	2.355	trial	1758.0	Novel	**BOTH**	HI*PITCH	RIGHT*INDEX*	Correct	4.0	right_index_finger	red	vertical	high	alarm	blue	horizontal	high	alarm
189.18499999999992	1.57	ITI	n/a	n/a	n/a	n/a	n/a	n/a	n/a	n/a	n/a	n/a	n/a	n/a	n/a	n/a	n/a	n/a
190.7549999999999	2.355	trial	1785.0	Novel	**BOTH**	HI*PITCH	RIGHT*INDEX*	Correct	4.0	right_index_finger	red	horizontal	high	alarm	red	vertical	high	constant
193.1099999999999	8.635	delay	n/a	n/a	n/a	n/a	n/a	n/a	n/a	n/a	n/a	n/a	n/a	n/a	n/a	n/a	n/a	n/a
201.7449999999999	3.9250000000000003	encoding	n/a	Novel	**BOTH**	CONSTANT	RIGHT*MIDDLE	n/a	7.0	n/a	n/a	n/a	n/a	n/a	n/a	n/a	n/a	n/a
205.6699999999999	1.57	delay	n/a	n/a	n/a	n/a	n/a	n/a	n/a	n/a	n/a	n/a	n/a	n/a	n/a	n/a	n/a	n/a
207.2399999999999	2.355	trial	1965.0	Novel	**BOTH**	CONSTANT	RIGHT*MIDDLE	Correct	7.0	right_middle_finger	blue	vertical	high	constant	blue	vertical	high	constant
209.59499999999989	1.57	ITI	n/a	n/a	n/a	n/a	n/a	n/a	n/a	n/a	n/a	n/a	n/a	n/a	n/a	n/a	n/a	n/a
211.16499999999988	2.355	trial	1952.0	Novel	**BOTH**	CONSTANT	RIGHT*MIDDLE	Correct	7.0	right_middle_finger	red	horizontal	high	constant	blue	vertical	low	constant
213.51999999999987	1.57	ITI	n/a	n/a	n/a	n/a	n/a	n/a	n/a	n/a	n/a	n/a	n/a	n/a	n/a	n/a	n/a	n/a
215.08999999999986	2.355	trial	2148.0	Novel	**BOTH**	CONSTANT	RIGHT*MIDDLE	Correct	7.0	right_index_finger	red	horizontal	low	constant	red	horizontal	high	alarm
217.44499999999985	12.56	delay	n/a	n/a	n/a	n/a	n/a	n/a	n/a	n/a	n/a	n/a	n/a	n/a	n/a	n/a	n/a	n/a
230.00499999999985	3.9250000000000003	encoding	n/a	Novel	NEITHER*	**RED***	RIGHT*INDEX*	n/a	60.0	n/a	n/a	n/a	n/a	n/a	n/a	n/a	n/a	n/a
233.92999999999986	3.14	delay	n/a	n/a	n/a	n/a	n/a	n/a	n/a	n/a	n/a	n/a	n/a	n/a	n/a	n/a	n/a	n/a
237.06999999999985	2.355	trial	1847.0	Novel	NEITHER*	**RED***	RIGHT*INDEX*	Wrong	60.0	right_index_finger	blue	vertical	high	constant	red	horizontal	low	constant
239.42499999999984	1.57	ITI	n/a	n/a	n/a	n/a	n/a	n/a	n/a	n/a	n/a	n/a	n/a	n/a	n/a	n/a	n/a	n/a
240.99499999999983	2.355	trial	2515.0	Novel	NEITHER*	**RED***	RIGHT*INDEX*	Wrong	60.0	right_middle_finger	blue	vertical	high	alarm	blue	horizontal	high	alarm
243.34999999999982	1.57	ITI	n/a	n/a	n/a	n/a	n/a	n/a	n/a	n/a	n/a	n/a	n/a	n/a	n/a	n/a	n/a	n/a
244.91999999999982	2.355	trial	1310.0	Novel	NEITHER*	**RED***	RIGHT*INDEX*	Wrong	60.0	right_index_finger	red	horizontal	high	constant	blue	horizontal	high	constant
247.2749999999998	10.99	delay	n/a	n/a	n/a	n/a	n/a	n/a	n/a	n/a	n/a	n/a	n/a	n/a	n/a	n/a	n/a	n/a
258.2649999999998	3.9250000000000003	encoding	n/a	Novel	NEITHER*	HI*PITCH	RIGHT*MIDDLE	n/a	51.0	n/a	n/a	n/a	n/a	n/a	n/a	n/a	n/a	n/a
262.1899999999998	3.925	delay	n/a	n/a	n/a	n/a	n/a	n/a	n/a	n/a	n/a	n/a	n/a	n/a	n/a	n/a	n/a	n/a
266.11499999999984	2.355	trial	3169.0	Novel	NEITHER*	HI*PITCH	RIGHT*MIDDLE	Correct	51.0	right_index_finger	red	horizontal	high	constant	red	vertical	high	alarm
268.46999999999986	1.57	ITI	n/a	n/a	n/a	n/a	n/a	n/a	n/a	n/a	n/a	n/a	n/a	n/a	n/a	n/a	n/a	n/a
270.03999999999985	2.355	trial	1359.0	Novel	NEITHER*	HI*PITCH	RIGHT*MIDDLE	Correct	51.0	right_index_finger	blue	vertical	high	alarm	blue	vertical	high	constant
272.39499999999987	1.57	ITI	n/a	n/a	n/a	n/a	n/a	n/a	n/a	n/a	n/a	n/a	n/a	n/a	n/a	n/a	n/a	n/a
273.96499999999986	2.355	trial	1785.0	Novel	NEITHER*	HI*PITCH	RIGHT*MIDDLE	Correct	51.0	right_middle_finger	red	vertical	low	constant	red	vertical	low	alarm
276.3199999999999	10.205	delay	n/a	n/a	n/a	n/a	n/a	n/a	n/a	n/a	n/a	n/a	n/a	n/a	n/a	n/a	n/a	n/a
286.52499999999986	3.9250000000000003	encoding	n/a	Novel	NEITHER*	**RED***	*LEFT*INDEX*	n/a	58.0	n/a	n/a	n/a	n/a	n/a	n/a	n/a	n/a	n/a
290.4499999999999	2.355	delay	n/a	n/a	n/a	n/a	n/a	n/a	n/a	n/a	n/a	n/a	n/a	n/a	n/a	n/a	n/a	n/a
292.8049999999999	2.355	trial	1749.0	Novel	NEITHER*	**RED***	*LEFT*INDEX*	Correct	58.0	left_middle_finger	blue	vertical	high	constant	red	horizontal	low	constant
295.1599999999999	1.57	ITI	n/a	n/a	n/a	n/a	n/a	n/a	n/a	n/a	n/a	n/a	n/a	n/a	n/a	n/a	n/a	n/a
296.7299999999999	2.355	trial	1616.0	Novel	NEITHER*	**RED***	*LEFT*INDEX*	Correct	58.0	left_index_finger	blue	vertical	low	constant	blue	horizontal	low	constant
299.0849999999999	1.57	ITI	n/a	n/a	n/a	n/a	n/a	n/a	n/a	n/a	n/a	n/a	n/a	n/a	n/a	n/a	n/a	n/a
300.6549999999999	2.355	trial	1683.0	Novel	NEITHER*	**RED***	*LEFT*INDEX*	Correct	58.0	left_index_finger	blue	vertical	low	constant	blue	vertical	high	constant
303.00999999999993	11.775	delay	n/a	n/a	n/a	n/a	n/a	n/a	n/a	n/a	n/a	n/a	n/a	n/a	n/a	n/a	n/a	n/a
314.7849999999999	3.9250000000000003	encoding	n/a	Novel	NOT*BOTH	VERTICAL	*LEFT*INDEX*	n/a	30.0	n/a	n/a	n/a	n/a	n/a	n/a	n/a	n/a	n/a
318.7099999999999	4.71	delay	n/a	n/a	n/a	n/a	n/a	n/a	n/a	n/a	n/a	n/a	n/a	n/a	n/a	n/a	n/a	n/a
323.4199999999999	2.355	trial	3084.0	Novel	NOT*BOTH	VERTICAL	*LEFT*INDEX*	Wrong Hand	30.0	right_index_finger	red	horizontal	high	alarm	blue	horizontal	low	constant
325.7749999999999	1.57	ITI	n/a	n/a	n/a	n/a	n/a	n/a	n/a	n/a	n/a	n/a	n/a	n/a	n/a	n/a	n/a	n/a
327.3449999999999	2.355	trial	1553.0	Novel	NOT*BOTH	VERTICAL	*LEFT*INDEX*	Wrong Hand	30.0	right_index_finger	red	horizontal	high	constant	red	horizontal	high	alarm
329.69999999999993	1.57	ITI	n/a	n/a	n/a	n/a	n/a	n/a	n/a	n/a	n/a	n/a	n/a	n/a	n/a	n/a	n/a	n/a
331.2699999999999	2.355	trial	1733.0	Novel	NOT*BOTH	VERTICAL	*LEFT*INDEX*	Wrong Hand	30.0	right_middle_finger	blue	vertical	low	constant	red	vertical	high	alarm
333.62499999999994	9.42	delay	n/a	n/a	n/a	n/a	n/a	n/a	n/a	n/a	n/a	n/a	n/a	n/a	n/a	n/a	n/a	n/a
343.04499999999996	3.9250000000000003	encoding	n/a	Novel	NOT*BOTH	**RED***	RIGHT*INDEX*	n/a	28.0	n/a	n/a	n/a	n/a	n/a	n/a	n/a	n/a	n/a
346.96999999999997	3.925	delay	n/a	n/a	n/a	n/a	n/a	n/a	n/a	n/a	n/a	n/a	n/a	n/a	n/a	n/a	n/a	n/a
350.895	2.355	trial	1841.0	Novel	NOT*BOTH	**RED***	RIGHT*INDEX*	Wrong	28.0	right_middle_finger	blue	horizontal	high	alarm	red	horizontal	high	constant
353.25	1.57	ITI	n/a	n/a	n/a	n/a	n/a	n/a	n/a	n/a	n/a	n/a	n/a	n/a	n/a	n/a	n/a	n/a
354.82	2.355	trial	1721.0	Novel	NOT*BOTH	**RED***	RIGHT*INDEX*	Correct	28.0	right_middle_finger	red	horizontal	low	alarm	red	vertical	low	constant
357.175	1.57	ITI	n/a	n/a	n/a	n/a	n/a	n/a	n/a	n/a	n/a	n/a	n/a	n/a	n/a	n/a	n/a	n/a
358.745	2.355	trial	1625.0	Novel	NOT*BOTH	**RED***	RIGHT*INDEX*	Correct	28.0	right_index_finger	blue	vertical	high	constant	blue	horizontal	high	constant
361.1	10.205	delay	n/a	n/a	n/a	n/a	n/a	n/a	n/a	n/a	n/a	n/a	n/a	n/a	n/a	n/a	n/a	n/a
371.305	3.9250000000000003	encoding	n/a	Novel	NEITHER*	CONSTANT	RIGHT*MIDDLE	n/a	55.0	n/a	n/a	n/a	n/a	n/a	n/a	n/a	n/a	n/a
375.23	4.71	delay	n/a	n/a	n/a	n/a	n/a	n/a	n/a	n/a	n/a	n/a	n/a	n/a	n/a	n/a	n/a	n/a
379.94	2.355	trial	430.0	Novel	NEITHER*	CONSTANT	RIGHT*MIDDLE	Correct	55.0	right_middle_finger	red	horizontal	low	alarm	red	vertical	low	alarm
382.295	1.57	ITI	n/a	n/a	n/a	n/a	n/a	n/a	n/a	n/a	n/a	n/a	n/a	n/a	n/a	n/a	n/a	n/a
383.865	2.355	trial	1978.0	Novel	NEITHER*	CONSTANT	RIGHT*MIDDLE	Wrong	55.0	right_middle_finger	blue	vertical	low	alarm	red	vertical	high	constant
386.22	1.57	ITI	n/a	n/a	n/a	n/a	n/a	n/a	n/a	n/a	n/a	n/a	n/a	n/a	n/a	n/a	n/a	n/a
387.79	2.355	trial	1827.0	Novel	NEITHER*	CONSTANT	RIGHT*MIDDLE	Wrong	55.0	right_middle_finger	red	vertical	low	alarm	blue	vertical	low	constant
390.14500000000004	9.42	delay	n/a	n/a	n/a	n/a	n/a	n/a	n/a	n/a	n/a	n/a	n/a	n/a	n/a	n/a	n/a	n/a
399.56500000000005	3.9250000000000003	encoding	n/a	Novel	*EITHER*	HI*PITCH	*LEFT*INDEX*	n/a	34.0	n/a	n/a	n/a	n/a	n/a	n/a	n/a	n/a	n/a
403.49000000000007	3.14	delay	n/a	n/a	n/a	n/a	n/a	n/a	n/a	n/a	n/a	n/a	n/a	n/a	n/a	n/a	n/a	n/a
406.63000000000005	2.355	trial	1872.0	Novel	*EITHER*	HI*PITCH	*LEFT*INDEX*	Correct	34.0	left_middle_finger	red	horizontal	low	alarm	red	vertical	low	constant
408.98500000000007	1.57	ITI	n/a	n/a	n/a	n/a	n/a	n/a	n/a	n/a	n/a	n/a	n/a	n/a	n/a	n/a	n/a	n/a
410.55500000000006	2.355	trial	1708.0	Novel	*EITHER*	HI*PITCH	*LEFT*INDEX*	Correct	34.0	left_index_finger	blue	vertical	low	constant	red	vertical	high	alarm
412.9100000000001	1.57	ITI	n/a	n/a	n/a	n/a	n/a	n/a	n/a	n/a	n/a	n/a	n/a	n/a	n/a	n/a	n/a	n/a
414.4800000000001	2.355	trial	624.0	Novel	*EITHER*	HI*PITCH	*LEFT*INDEX*	Correct	34.0	left_index_finger	red	vertical	high	constant	blue	vertical	high	constant
416.8350000000001	10.99	delay	n/a	n/a	n/a	n/a	n/a	n/a	n/a	n/a	n/a	n/a	n/a	n/a	n/a	n/a	n/a	n/a
427.8250000000001	3.9250000000000003	encoding	n/a	Novel	*EITHER*	**RED***	RIGHT*MIDDLE	n/a	43.0	n/a	n/a	n/a	n/a	n/a	n/a	n/a	n/a	n/a
431.7500000000001	3.925	delay	n/a	n/a	n/a	n/a	n/a	n/a	n/a	n/a	n/a	n/a	n/a	n/a	n/a	n/a	n/a	n/a
435.6750000000001	2.355	trial	2389.0	Novel	*EITHER*	**RED***	RIGHT*MIDDLE	Wrong	43.0	right_index_finger	red	vertical	high	alarm	red	vertical	high	alarm
438.03000000000014	1.57	ITI	n/a	n/a	n/a	n/a	n/a	n/a	n/a	n/a	n/a	n/a	n/a	n/a	n/a	n/a	n/a	n/a
439.60000000000014	2.355	trial	607.0	Novel	*EITHER*	**RED***	RIGHT*MIDDLE	Correct	43.0	right_middle_finger	red	horizontal	low	alarm	red	vertical	high	constant
441.95500000000015	1.57	ITI	n/a	n/a	n/a	n/a	n/a	n/a	n/a	n/a	n/a	n/a	n/a	n/a	n/a	n/a	n/a	n/a
443.52500000000015	2.355	trial	468.0	Novel	*EITHER*	**RED***	RIGHT*MIDDLE	Correct	43.0	right_middle_finger	red	vertical	high	alarm	red	vertical	low	constant
445.88000000000017	10.205	delay	n/a	n/a	n/a	n/a	n/a	n/a	n/a	n/a	n/a	n/a	n/a	n/a	n/a	n/a	n/a	n/a
