onset	duration	task_event	rt_in_ms	task_novelty	logic_rule	sensory_rule	motor_rule	performance	task_id	motor_response	stimulus1_color	stimulus1_orientation	stimulus1_pitch	stimulus1_continuity	stimulus2_color	stimulus2_orientation	stimulus2_pitch	stimulus2_continuity
0.0	3.9250000000000003	delay	n/a	n/a	n/a	n/a	n/a	n/a	n/a	n/a	n/a	n/a	n/a	n/a	n/a	n/a	n/a	n/a
3.9250000000000003	3.9250000000000003	encoding	n/a	Novel	NOT*BOTH	CONSTANT	*LEFT*INDEX*	n/a	22.0	n/a	n/a	n/a	n/a	n/a	n/a	n/a	n/a	n/a
7.8500000000000005	3.925	delay	n/a	n/a	n/a	n/a	n/a	n/a	n/a	n/a	n/a	n/a	n/a	n/a	n/a	n/a	n/a	n/a
11.775	2.355	trial	2075.0	Novel	NOT*BOTH	CONSTANT	*LEFT*INDEX*	Wrong	22.0	left_middle_finger	blue	vertical	high	constant	blue	vertical	high	alarm
14.13	1.57	ITI	n/a	n/a	n/a	n/a	n/a	n/a	n/a	n/a	n/a	n/a	n/a	n/a	n/a	n/a	n/a	n/a
15.700000000000001	2.355	trial	1900.0	Novel	NOT*BOTH	CONSTANT	*LEFT*INDEX*	Correct	22.0	left_index_finger	red	horizontal	low	constant	red	horizontal	high	alarm
18.055	1.57	ITI	n/a	n/a	n/a	n/a	n/a	n/a	n/a	n/a	n/a	n/a	n/a	n/a	n/a	n/a	n/a	n/a
19.625	2.355	trial	1843.0	Novel	NOT*BOTH	CONSTANT	*LEFT*INDEX*	Correct	22.0	left_index_finger	blue	vertical	low	alarm	blue	vertical	high	constant
21.98	10.205	delay	n/a	n/a	n/a	n/a	n/a	n/a	n/a	n/a	n/a	n/a	n/a	n/a	n/a	n/a	n/a	n/a
32.185	3.9250000000000003	encoding	n/a	Novel	*EITHER*	**RED***	*LEFT*INDEX*	n/a	42.0	n/a	n/a	n/a	n/a	n/a	n/a	n/a	n/a	n/a
36.11	3.14	delay	n/a	n/a	n/a	n/a	n/a	n/a	n/a	n/a	n/a	n/a	n/a	n/a	n/a	n/a	n/a	n/a
39.25	2.355	trial	1742.0	Novel	*EITHER*	**RED***	*LEFT*INDEX*	Correct	42.0	left_middle_finger	blue	horizontal	low	constant	blue	vertical	high	alarm
41.605	1.57	ITI	n/a	n/a	n/a	n/a	n/a	n/a	n/a	n/a	n/a	n/a	n/a	n/a	n/a	n/a	n/a	n/a
43.175	2.355	trial	1595.0	Novel	*EITHER*	**RED***	*LEFT*INDEX*	Correct	42.0	left_index_finger	blue	vertical	high	alarm	red	vertical	high	alarm
45.529999999999994	1.57	ITI	n/a	n/a	n/a	n/a	n/a	n/a	n/a	n/a	n/a	n/a	n/a	n/a	n/a	n/a	n/a	n/a
47.099999999999994	2.355	trial	1691.0	Novel	*EITHER*	**RED***	*LEFT*INDEX*	Correct	42.0	left_middle_finger	blue	vertical	high	alarm	blue	vertical	low	alarm
49.45499999999999	10.99	delay	n/a	n/a	n/a	n/a	n/a	n/a	n/a	n/a	n/a	n/a	n/a	n/a	n/a	n/a	n/a	n/a
60.44499999999999	3.9250000000000003	encoding	n/a	Novel	NOT*BOTH	HI*PITCH	LEFT*MIDDLE*	n/a	17.0	n/a	n/a	n/a	n/a	n/a	n/a	n/a	n/a	n/a
64.36999999999999	1.57	delay	n/a	n/a	n/a	n/a	n/a	n/a	n/a	n/a	n/a	n/a	n/a	n/a	n/a	n/a	n/a	n/a
65.93999999999998	2.355	trial	2528.0	Novel	NOT*BOTH	HI*PITCH	LEFT*MIDDLE*	Wrong Hand	17.0	right_index_finger	blue	vertical	high	alarm	red	horizontal	high	constant
68.29499999999999	1.57	ITI	n/a	n/a	n/a	n/a	n/a	n/a	n/a	n/a	n/a	n/a	n/a	n/a	n/a	n/a	n/a	n/a
69.86499999999998	2.355	trial	2150.0	Novel	NOT*BOTH	HI*PITCH	LEFT*MIDDLE*	Wrong Hand	17.0	right_middle_finger	red	horizontal	high	alarm	red	horizontal	low	constant
72.21999999999998	1.57	ITI	n/a	n/a	n/a	n/a	n/a	n/a	n/a	n/a	n/a	n/a	n/a	n/a	n/a	n/a	n/a	n/a
73.78999999999998	2.355	trial	2043.0	Novel	NOT*BOTH	HI*PITCH	LEFT*MIDDLE*	Wrong Hand	17.0	right_middle_finger	blue	vertical	high	constant	blue	horizontal	high	constant
76.14499999999998	12.56	delay	n/a	n/a	n/a	n/a	n/a	n/a	n/a	n/a	n/a	n/a	n/a	n/a	n/a	n/a	n/a	n/a
88.70499999999998	3.9250000000000003	encoding	n/a	Novel	**BOTH**	HI*PITCH	RIGHT*MIDDLE	n/a	3.0	n/a	n/a	n/a	n/a	n/a	n/a	n/a	n/a	n/a
92.62999999999998	5.495	delay	n/a	n/a	n/a	n/a	n/a	n/a	n/a	n/a	n/a	n/a	n/a	n/a	n/a	n/a	n/a	n/a
98.12499999999999	2.355	trial	1171.0	Novel	**BOTH**	HI*PITCH	RIGHT*MIDDLE	Correct	3.0	right_index_finger	blue	horizontal	low	constant	red	horizontal	low	constant
100.47999999999999	1.57	ITI	n/a	n/a	n/a	n/a	n/a	n/a	n/a	n/a	n/a	n/a	n/a	n/a	n/a	n/a	n/a	n/a
102.04999999999998	2.355	trial	1835.0	Novel	**BOTH**	HI*PITCH	RIGHT*MIDDLE	Correct	3.0	right_middle_finger	blue	vertical	high	constant	red	vertical	high	alarm
104.40499999999999	1.57	ITI	n/a	n/a	n/a	n/a	n/a	n/a	n/a	n/a	n/a	n/a	n/a	n/a	n/a	n/a	n/a	n/a
105.97499999999998	2.355	trial	1772.0	Novel	**BOTH**	HI*PITCH	RIGHT*MIDDLE	Correct	3.0	right_middle_finger	blue	vertical	high	constant	red	horizontal	high	alarm
108.32999999999998	8.635	delay	n/a	n/a	n/a	n/a	n/a	n/a	n/a	n/a	n/a	n/a	n/a	n/a	n/a	n/a	n/a	n/a
116.96499999999999	3.9250000000000003	encoding	n/a	Novel	NEITHER*	**RED***	*LEFT*INDEX*	n/a	58.0	n/a	n/a	n/a	n/a	n/a	n/a	n/a	n/a	n/a
120.88999999999999	1.57	delay	n/a	n/a	n/a	n/a	n/a	n/a	n/a	n/a	n/a	n/a	n/a	n/a	n/a	n/a	n/a	n/a
122.45999999999998	2.355	trial	1788.0	Novel	NEITHER*	**RED***	*LEFT*INDEX*	Correct	58.0	left_index_finger	blue	vertical	high	alarm	blue	horizontal	low	alarm
124.81499999999998	1.57	ITI	n/a	n/a	n/a	n/a	n/a	n/a	n/a	n/a	n/a	n/a	n/a	n/a	n/a	n/a	n/a	n/a
126.38499999999998	2.355	trial	645.0	Novel	NEITHER*	**RED***	*LEFT*INDEX*	Correct	58.0	left_middle_finger	red	horizontal	high	alarm	red	vertical	high	constant
128.73999999999998	1.57	ITI	n/a	n/a	n/a	n/a	n/a	n/a	n/a	n/a	n/a	n/a	n/a	n/a	n/a	n/a	n/a	n/a
130.30999999999997	2.355	trial	1805.0	Novel	NEITHER*	**RED***	*LEFT*INDEX*	Correct	58.0	left_index_finger	blue	vertical	low	constant	blue	vertical	low	constant
132.66499999999996	12.56	delay	n/a	n/a	n/a	n/a	n/a	n/a	n/a	n/a	n/a	n/a	n/a	n/a	n/a	n/a	n/a	n/a
145.22499999999997	3.9250000000000003	encoding	n/a	Novel	NOT*BOTH	VERTICAL	*LEFT*INDEX*	n/a	30.0	n/a	n/a	n/a	n/a	n/a	n/a	n/a	n/a	n/a
149.14999999999998	2.355	delay	n/a	n/a	n/a	n/a	n/a	n/a	n/a	n/a	n/a	n/a	n/a	n/a	n/a	n/a	n/a	n/a
151.50499999999997	2.355	trial	2240.0	Novel	NOT*BOTH	VERTICAL	*LEFT*INDEX*	Correct	30.0	left_middle_finger	red	vertical	low	alarm	blue	vertical	high	alarm
153.85999999999996	1.57	ITI	n/a	n/a	n/a	n/a	n/a	n/a	n/a	n/a	n/a	n/a	n/a	n/a	n/a	n/a	n/a	n/a
155.42999999999995	2.355	trial	1854.0	Novel	NOT*BOTH	VERTICAL	*LEFT*INDEX*	Correct	30.0	left_middle_finger	red	vertical	high	alarm	red	vertical	low	alarm
157.78499999999994	1.57	ITI	n/a	n/a	n/a	n/a	n/a	n/a	n/a	n/a	n/a	n/a	n/a	n/a	n/a	n/a	n/a	n/a
159.35499999999993	2.355	trial	1804.0	Novel	NOT*BOTH	VERTICAL	*LEFT*INDEX*	Correct	30.0	left_middle_finger	red	vertical	high	alarm	blue	vertical	low	alarm
161.70999999999992	11.775	delay	n/a	n/a	n/a	n/a	n/a	n/a	n/a	n/a	n/a	n/a	n/a	n/a	n/a	n/a	n/a	n/a
173.48499999999993	3.9250000000000003	encoding	n/a	Novel	**BOTH**	VERTICAL	RIGHT*INDEX*	n/a	16.0	n/a	n/a	n/a	n/a	n/a	n/a	n/a	n/a	n/a
177.40999999999994	3.925	delay	n/a	n/a	n/a	n/a	n/a	n/a	n/a	n/a	n/a	n/a	n/a	n/a	n/a	n/a	n/a	n/a
181.33499999999995	2.355	trial	1765.0	Novel	**BOTH**	VERTICAL	RIGHT*INDEX*	Correct	16.0	right_index_finger	red	vertical	low	constant	blue	vertical	low	constant
183.68999999999994	1.57	ITI	n/a	n/a	n/a	n/a	n/a	n/a	n/a	n/a	n/a	n/a	n/a	n/a	n/a	n/a	n/a	n/a
185.25999999999993	2.355	trial	1683.0	Novel	**BOTH**	VERTICAL	RIGHT*INDEX*	Correct	16.0	right_index_finger	red	vertical	high	alarm	red	vertical	low	constant
187.61499999999992	1.57	ITI	n/a	n/a	n/a	n/a	n/a	n/a	n/a	n/a	n/a	n/a	n/a	n/a	n/a	n/a	n/a	n/a
189.18499999999992	2.355	trial	1051.0	Novel	**BOTH**	VERTICAL	RIGHT*INDEX*	Correct	16.0	right_middle_finger	red	horizontal	low	constant	blue	vertical	low	alarm
191.5399999999999	10.205	delay	n/a	n/a	n/a	n/a	n/a	n/a	n/a	n/a	n/a	n/a	n/a	n/a	n/a	n/a	n/a	n/a
201.74499999999992	3.9250000000000003	encoding	n/a	Novel	NOT*BOTH	HI*PITCH	RIGHT*MIDDLE	n/a	19.0	n/a	n/a	n/a	n/a	n/a	n/a	n/a	n/a	n/a
205.66999999999993	2.355	delay	n/a	n/a	n/a	n/a	n/a	n/a	n/a	n/a	n/a	n/a	n/a	n/a	n/a	n/a	n/a	n/a
208.02499999999992	2.355	trial	2368.0	Novel	NOT*BOTH	HI*PITCH	RIGHT*MIDDLE	Wrong	19.0	right_index_finger	blue	vertical	low	alarm	blue	vertical	low	alarm
210.3799999999999	1.57	ITI	n/a	n/a	n/a	n/a	n/a	n/a	n/a	n/a	n/a	n/a	n/a	n/a	n/a	n/a	n/a	n/a
211.9499999999999	2.355	trial	1897.0	Novel	NOT*BOTH	HI*PITCH	RIGHT*MIDDLE	Correct	19.0	right_middle_finger	red	vertical	low	constant	blue	vertical	high	alarm
214.3049999999999	1.57	ITI	n/a	n/a	n/a	n/a	n/a	n/a	n/a	n/a	n/a	n/a	n/a	n/a	n/a	n/a	n/a	n/a
215.8749999999999	2.355	trial	1667.0	Novel	NOT*BOTH	HI*PITCH	RIGHT*MIDDLE	Correct	19.0	right_index_finger	blue	vertical	high	constant	blue	horizontal	high	alarm
218.22999999999988	11.775	delay	n/a	n/a	n/a	n/a	n/a	n/a	n/a	n/a	n/a	n/a	n/a	n/a	n/a	n/a	n/a	n/a
230.00499999999988	3.9250000000000003	encoding	n/a	Novel	NOT*BOTH	CONSTANT	RIGHT*INDEX*	n/a	24.0	n/a	n/a	n/a	n/a	n/a	n/a	n/a	n/a	n/a
233.9299999999999	3.14	delay	n/a	n/a	n/a	n/a	n/a	n/a	n/a	n/a	n/a	n/a	n/a	n/a	n/a	n/a	n/a	n/a
237.06999999999988	2.355	trial	2046.0	Novel	NOT*BOTH	CONSTANT	RIGHT*INDEX*	Wrong	24.0	right_middle_finger	red	horizontal	high	alarm	red	horizontal	low	alarm
239.42499999999987	1.57	ITI	n/a	n/a	n/a	n/a	n/a	n/a	n/a	n/a	n/a	n/a	n/a	n/a	n/a	n/a	n/a	n/a
240.99499999999986	2.355	trial	1445.0	Novel	NOT*BOTH	CONSTANT	RIGHT*INDEX*	Correct	24.0	right_index_finger	red	horizontal	low	alarm	blue	vertical	low	constant
243.34999999999985	1.57	ITI	n/a	n/a	n/a	n/a	n/a	n/a	n/a	n/a	n/a	n/a	n/a	n/a	n/a	n/a	n/a	n/a
244.91999999999985	2.355	trial	1965.0	Novel	NOT*BOTH	CONSTANT	RIGHT*INDEX*	Correct	24.0	right_middle_finger	red	horizontal	low	constant	red	horizontal	low	constant
247.27499999999984	10.99	delay	n/a	n/a	n/a	n/a	n/a	n/a	n/a	n/a	n/a	n/a	n/a	n/a	n/a	n/a	n/a	n/a
258.2649999999998	3.9250000000000003	encoding	n/a	Novel	*EITHER*	CONSTANT	*LEFT*INDEX*	n/a	38.0	n/a	n/a	n/a	n/a	n/a	n/a	n/a	n/a	n/a
262.1899999999998	5.495	delay	n/a	n/a	n/a	n/a	n/a	n/a	n/a	n/a	n/a	n/a	n/a	n/a	n/a	n/a	n/a	n/a
267.68499999999983	2.355	trial	2536.0	Novel	*EITHER*	CONSTANT	*LEFT*INDEX*	Correct	38.0	left_middle_finger	blue	vertical	high	alarm	blue	horizontal	low	alarm
270.03999999999985	1.57	ITI	n/a	n/a	n/a	n/a	n/a	n/a	n/a	n/a	n/a	n/a	n/a	n/a	n/a	n/a	n/a	n/a
271.60999999999984	2.355	trial	1734.0	Novel	*EITHER*	CONSTANT	*LEFT*INDEX*	Correct	38.0	left_middle_finger	blue	vertical	low	alarm	blue	horizontal	low	alarm
273.96499999999986	1.57	ITI	n/a	n/a	n/a	n/a	n/a	n/a	n/a	n/a	n/a	n/a	n/a	n/a	n/a	n/a	n/a	n/a
275.53499999999985	2.355	trial	1586.0	Novel	*EITHER*	CONSTANT	*LEFT*INDEX*	Correct	38.0	left_middle_finger	blue	horizontal	high	alarm	blue	vertical	high	alarm
277.8899999999999	8.635	delay	n/a	n/a	n/a	n/a	n/a	n/a	n/a	n/a	n/a	n/a	n/a	n/a	n/a	n/a	n/a	n/a
286.52499999999986	3.9250000000000003	encoding	n/a	Novel	**BOTH**	HI*PITCH	*LEFT*INDEX*	n/a	2.0	n/a	n/a	n/a	n/a	n/a	n/a	n/a	n/a	n/a
290.4499999999999	5.495	delay	n/a	n/a	n/a	n/a	n/a	n/a	n/a	n/a	n/a	n/a	n/a	n/a	n/a	n/a	n/a	n/a
295.9449999999999	2.355	trial	1971.0	Novel	**BOTH**	HI*PITCH	*LEFT*INDEX*	Correct	2.0	left_index_finger	blue	horizontal	high	constant	red	vertical	high	alarm
298.2999999999999	1.57	ITI	n/a	n/a	n/a	n/a	n/a	n/a	n/a	n/a	n/a	n/a	n/a	n/a	n/a	n/a	n/a	n/a
299.8699999999999	2.355	trial	1638.0	Novel	**BOTH**	HI*PITCH	*LEFT*INDEX*	Correct	2.0	left_middle_finger	red	horizontal	high	alarm	blue	vertical	low	constant
302.2249999999999	1.57	ITI	n/a	n/a	n/a	n/a	n/a	n/a	n/a	n/a	n/a	n/a	n/a	n/a	n/a	n/a	n/a	n/a
303.7949999999999	2.355	trial	1782.0	Novel	**BOTH**	HI*PITCH	*LEFT*INDEX*	Correct	2.0	left_index_finger	red	vertical	high	constant	blue	horizontal	high	constant
306.1499999999999	8.635	delay	n/a	n/a	n/a	n/a	n/a	n/a	n/a	n/a	n/a	n/a	n/a	n/a	n/a	n/a	n/a	n/a
314.7849999999999	3.9250000000000003	encoding	n/a	Prac	NOT*BOTH	**RED***	RIGHT*INDEX*	n/a	28.0	n/a	n/a	n/a	n/a	n/a	n/a	n/a	n/a	n/a
318.7099999999999	1.57	delay	n/a	n/a	n/a	n/a	n/a	n/a	n/a	n/a	n/a	n/a	n/a	n/a	n/a	n/a	n/a	n/a
320.2799999999999	2.355	trial	450.0	Prac	NOT*BOTH	**RED***	RIGHT*INDEX*	Correct	28.0	right_index_finger	blue	vertical	high	alarm	blue	horizontal	high	alarm
322.63499999999993	1.57	ITI	n/a	n/a	n/a	n/a	n/a	n/a	n/a	n/a	n/a	n/a	n/a	n/a	n/a	n/a	n/a	n/a
324.2049999999999	2.355	trial	686.0	Prac	NOT*BOTH	**RED***	RIGHT*INDEX*	Correct	28.0	right_index_finger	blue	vertical	high	constant	blue	vertical	high	alarm
326.55999999999995	1.57	ITI	n/a	n/a	n/a	n/a	n/a	n/a	n/a	n/a	n/a	n/a	n/a	n/a	n/a	n/a	n/a	n/a
328.12999999999994	2.355	trial	2223.0	Prac	NOT*BOTH	**RED***	RIGHT*INDEX*	Correct	28.0	right_index_finger	blue	horizontal	low	constant	red	horizontal	low	alarm
330.48499999999996	12.56	delay	n/a	n/a	n/a	n/a	n/a	n/a	n/a	n/a	n/a	n/a	n/a	n/a	n/a	n/a	n/a	n/a
343.04499999999996	3.9250000000000003	encoding	n/a	Novel	**BOTH**	HI*PITCH	LEFT*MIDDLE*	n/a	1.0	n/a	n/a	n/a	n/a	n/a	n/a	n/a	n/a	n/a
346.96999999999997	4.71	delay	n/a	n/a	n/a	n/a	n/a	n/a	n/a	n/a	n/a	n/a	n/a	n/a	n/a	n/a	n/a	n/a
351.67999999999995	2.355	trial	2165.0	Novel	**BOTH**	HI*PITCH	LEFT*MIDDLE*	Wrong	1.0	left_middle_finger	red	vertical	high	alarm	red	horizontal	low	constant
354.03499999999997	1.57	ITI	n/a	n/a	n/a	n/a	n/a	n/a	n/a	n/a	n/a	n/a	n/a	n/a	n/a	n/a	n/a	n/a
355.60499999999996	2.355	trial	2008.0	Novel	**BOTH**	HI*PITCH	LEFT*MIDDLE*	Wrong	1.0	left_middle_finger	blue	vertical	high	alarm	red	vertical	low	alarm
357.96	1.57	ITI	n/a	n/a	n/a	n/a	n/a	n/a	n/a	n/a	n/a	n/a	n/a	n/a	n/a	n/a	n/a	n/a
359.53	2.355	trial	1785.0	Novel	**BOTH**	HI*PITCH	LEFT*MIDDLE*	Wrong	1.0	left_middle_finger	red	horizontal	low	constant	blue	horizontal	low	alarm
361.885	9.42	delay	n/a	n/a	n/a	n/a	n/a	n/a	n/a	n/a	n/a	n/a	n/a	n/a	n/a	n/a	n/a	n/a
371.305	3.9250000000000003	encoding	n/a	Novel	**BOTH**	VERTICAL	RIGHT*MIDDLE	n/a	15.0	n/a	n/a	n/a	n/a	n/a	n/a	n/a	n/a	n/a
375.23	6.28	delay	n/a	n/a	n/a	n/a	n/a	n/a	n/a	n/a	n/a	n/a	n/a	n/a	n/a	n/a	n/a	n/a
381.51	2.355	trial	1891.0	Novel	**BOTH**	VERTICAL	RIGHT*MIDDLE	Correct	15.0	right_index_finger	red	vertical	high	alarm	red	horizontal	high	constant
383.865	1.57	ITI	n/a	n/a	n/a	n/a	n/a	n/a	n/a	n/a	n/a	n/a	n/a	n/a	n/a	n/a	n/a	n/a
385.435	2.355	trial	1676.0	Novel	**BOTH**	VERTICAL	RIGHT*MIDDLE	Correct	15.0	right_middle_finger	red	vertical	low	alarm	blue	vertical	high	constant
387.79	1.57	ITI	n/a	n/a	n/a	n/a	n/a	n/a	n/a	n/a	n/a	n/a	n/a	n/a	n/a	n/a	n/a	n/a
389.36	2.355	trial	1830.0	Novel	**BOTH**	VERTICAL	RIGHT*MIDDLE	Correct	15.0	right_middle_finger	red	vertical	high	constant	red	vertical	high	constant
391.71500000000003	7.85	delay	n/a	n/a	n/a	n/a	n/a	n/a	n/a	n/a	n/a	n/a	n/a	n/a	n/a	n/a	n/a	n/a
399.56500000000005	3.9250000000000003	encoding	n/a	Novel	*EITHER*	HI*PITCH	RIGHT*INDEX*	n/a	36.0	n/a	n/a	n/a	n/a	n/a	n/a	n/a	n/a	n/a
403.49000000000007	2.355	delay	n/a	n/a	n/a	n/a	n/a	n/a	n/a	n/a	n/a	n/a	n/a	n/a	n/a	n/a	n/a	n/a
405.8450000000001	2.355	trial	873.0	Novel	*EITHER*	HI*PITCH	RIGHT*INDEX*	Correct	36.0	right_index_finger	red	vertical	high	alarm	red	vertical	low	alarm
408.2000000000001	1.57	ITI	n/a	n/a	n/a	n/a	n/a	n/a	n/a	n/a	n/a	n/a	n/a	n/a	n/a	n/a	n/a	n/a
409.7700000000001	2.355	trial	1707.0	Novel	*EITHER*	HI*PITCH	RIGHT*INDEX*	Correct	36.0	right_middle_finger	blue	vertical	low	alarm	blue	vertical	low	constant
412.1250000000001	1.57	ITI	n/a	n/a	n/a	n/a	n/a	n/a	n/a	n/a	n/a	n/a	n/a	n/a	n/a	n/a	n/a	n/a
413.6950000000001	2.355	trial	719.0	Novel	*EITHER*	HI*PITCH	RIGHT*INDEX*	Correct	36.0	right_index_finger	blue	horizontal	high	alarm	red	horizontal	high	alarm
416.0500000000001	11.775	delay	n/a	n/a	n/a	n/a	n/a	n/a	n/a	n/a	n/a	n/a	n/a	n/a	n/a	n/a	n/a	n/a
427.8250000000001	3.9250000000000003	encoding	n/a	Novel	*EITHER*	VERTICAL	RIGHT*INDEX*	n/a	48.0	n/a	n/a	n/a	n/a	n/a	n/a	n/a	n/a	n/a
431.7500000000001	4.71	delay	n/a	n/a	n/a	n/a	n/a	n/a	n/a	n/a	n/a	n/a	n/a	n/a	n/a	n/a	n/a	n/a
436.4600000000001	2.355	trial	2042.0	Novel	*EITHER*	VERTICAL	RIGHT*INDEX*	Correct	48.0	right_middle_finger	blue	horizontal	high	constant	blue	horizontal	high	constant
438.8150000000001	1.57	ITI	n/a	n/a	n/a	n/a	n/a	n/a	n/a	n/a	n/a	n/a	n/a	n/a	n/a	n/a	n/a	n/a
440.3850000000001	2.355	trial	1920.0	Novel	*EITHER*	VERTICAL	RIGHT*INDEX*	Correct	48.0	right_middle_finger	red	horizontal	high	alarm	red	horizontal	low	alarm
442.7400000000001	1.57	ITI	n/a	n/a	n/a	n/a	n/a	n/a	n/a	n/a	n/a	n/a	n/a	n/a	n/a	n/a	n/a	n/a
444.3100000000001	2.355	trial	523.0	Novel	*EITHER*	VERTICAL	RIGHT*INDEX*	Correct	48.0	right_index_finger	blue	vertical	low	alarm	red	horizontal	high	constant
446.66500000000013	9.42	delay	n/a	n/a	n/a	n/a	n/a	n/a	n/a	n/a	n/a	n/a	n/a	n/a	n/a	n/a	n/a	n/a
